Time	a	ax	ay	az
t in s	a/m/s²	ax/m/s²	ay/m/s²	az/m/s²

0.0	9.25	0.92	-8.03	-4.50
0.05263157894736842	9.25	0.92	-8.03	-4.50
0.10526315789473684	9.25	0.92	-8.03	-4.50
0.15789473684210525	9.25	0.92	-8.03	-4.50
0.21052631578947367	9.25	0.92	-8.03	-4.50
0.2631578947368421	10.86	1.29	-8.13	-7.07
0.3157894736842105	10.97	-1.23	-8.54	-6.78
0.3684210526315789	10.44	-0.85	-8.99	-5.24
0.42105263157894735	8.54	0.94	-6.24	-5.75
0.47368421052631576	10.24	-0.35	-6.10	-8.22
0.5263157894736842	10.41	1.97	-7.17	-7.28
0.5789473684210527	10.90	1.01	-7.70	-7.65
0.631578947368421	8.33	1.22	-5.01	-6.55
0.6842105263157894	10.36	1.16	-8.21	-6.22
0.7368421052631577	9.12	1.05	-6.44	-6.37
0.7894736842105261	9.47	1.45	-6.87	-6.35
0.8421052631578945	10.80	1.16	-8.28	-6.83
0.8947368421052628	8.45	-0.01	-6.75	-5.08
0.9473684210526312	10.60	0.87	-7.00	-7.92
0.9999999999999996	12.20	0.90	-8.41	-8.79
1.052631578947368	11.32	2.05	-7.63	-8.10
1.1052631578947363	9.24	1.04	-5.86	-7.07
1.1578947368421046	8.51	0.42	-7.01	-4.82
1.210526315789473	9.67	0.78	-6.61	-7.01
1.2631578947368414	8.91	0.06	-6.84	-5.70
1.3157894736842097	11.92	1.12	-8.60	-8.17
1.368421052631578	11.30	0.36	-8.31	-7.65
1.4210526315789465	9.84	-0.22	-7.82	-5.96
1.4736842105263148	9.02	0.26	-6.94	-5.76
1.5263157894736832	10.60	-0.07	-6.97	-7.98
1.5789473684210515	11.42	-0.60	-8.85	-7.19
1.63157894736842	10.45	0.20	-8.86	-5.53
1.6842105263157883	10.64	0.36	-8.77	-6.02
1.7368421052631566	8.91	1.28	-7.11	-5.20
1.789473684210525	11.89	-0.24	-8.51	-8.30
1.8421052631578934	10.42	-0.87	-8.36	-6.16
1.8947368421052617	10.94	2.09	-7.40	-7.78
1.94736842105263	7.48	1.49	-5.69	-4.62
1.9999999999999984	10.88	1.08	-6.51	-8.65
2.052631578947367	11.93	2.48	-8.11	-8.38
2.1052631578947354	9.16	1.38	-7.55	-4.99
2.157894736842104	12.36	1.15	-8.95	-8.44
2.2105263157894726	11.56	1.67	-8.63	-7.51
2.263157894736841	8.86	0.10	-7.57	-4.61
2.3157894736842097	10.59	0.61	-7.31	-7.65
2.3684210526315783	9.25	0.15	-7.05	-5.98
2.421052631578947	8.98	0.27	-7.12	-5.46
2.4736842105263155	8.38	0.80	-5.47	-6.30
2.526315789473684	11.02	-0.49	-7.29	-8.25
2.5789473684210527	10.58	1.28	-7.74	-7.11
2.6315789473684212	10.52	2.05	-7.01	-7.58
2.68421052631579	10.32	-0.58	-7.25	-7.32
2.7368421052631584	10.37	0.47	-7.41	-7.24
2.789473684210527	8.93	2.62	-5.89	-6.18
2.8421052631578956	9.10	0.96	-5.92	-6.84
2.894736842105264	8.63	-1.04	-6.64	-5.41
2.9473684210526327	9.39	1.46	-7.04	-6.05
3.0000000000000013	12.04	1.43	-6.96	-9.72
3.05263157894737	10.71	1.16	-7.62	-7.43
3.1052631578947385	9.96	1.04	-7.90	-5.97
3.157894736842107	11.90	-0.39	-8.33	-8.50
3.2105263157894757	11.68	-0.75	-9.00	-7.40
3.2631578947368443	9.77	0.32	-7.55	-6.19
3.315789473684213	10.18	-0.00	-7.62	-6.75
3.3684210526315814	12.38	1.21	-8.70	-8.73
3.42105263157895	11.82	0.97	-8.44	-8.21
3.4736842105263186	8.64	-0.09	-6.77	-5.37
3.526315789473687	9.02	0.76	-6.63	-6.07
3.5789473684210558	9.41	0.74	-5.78	-7.38
3.6315789473684243	9.27	0.81	-6.36	-6.69
3.684210526315793	10.57	2.17	-7.57	-7.05
3.7368421052631615	9.39	2.24	-6.37	-6.54
3.78947368421053	11.40	0.25	-8.20	-7.92
3.8421052631578987	10.02	1.01	-7.54	-6.51
3.8947368421052673	11.00	0.39	-8.38	-7.11
3.947368421052636	9.88	1.59	-7.76	-5.89
4.000000000000004	9.24	1.23	-6.62	-6.33
4.052631578947373	10.80	1.10	-7.68	-7.51
4.105263157894741	8.87	2.09	-5.94	-6.25
4.157894736842109	10.19	0.66	-5.60	-8.49
4.210526315789477	8.87	0.75	-5.71	-6.74
4.263157894736845	7.74	1.38	-5.24	-5.53
4.315789473684213	10.36	0.58	-6.43	-8.11
4.368421052631581	10.02	1.34	-7.11	-6.93
4.42105263157895	10.23	1.56	-7.49	-6.79
4.473684210526318	11.64	0.38	-8.63	-7.80
4.526315789473686	11.42	1.05	-8.74	-7.26
4.578947368421054	12.53	1.03	-9.67	-7.90
4.631578947368422	10.30	0.22	-8.77	-5.41
4.68421052631579	8.91	0.58	-6.52	-6.05
4.736842105263158	10.37	1.24	-6.30	-8.14
4.7894736842105265	7.96	0.72	-5.87	-5.33
4.842105263157895	9.86	0.14	-6.43	-7.48
4.894736842105263	10.66	-0.06	-6.86	-8.16
4.947368421052631	10.75	0.54	-8.35	-6.74
4.999999999999999	10.36	0.68	-7.46	-7.15
5.052631578947367	10.33	-0.11	-8.44	-5.95
5.105263157894735	11.32	0.04	-9.01	-6.86
5.1578947368421035	11.45	-0.26	-8.21	-7.98
5.210526315789472	7.79	0.42	-6.91	-3.56
5.26315789473684	8.75	1.47	-4.42	-7.41
5.315789473684208	11.02	1.18	-6.32	-8.95
5.368421052631576	11.51	1.21	-9.12	-6.92
5.421052631578944	8.77	1.34	-6.74	-5.44
5.473684210526312	10.72	-0.73	-7.89	-7.21
5.5263157894736805	11.71	0.60	-9.17	-7.26
5.578947368421049	10.70	1.29	-7.09	-7.91
5.631578947368417	9.32	-0.06	-7.00	-6.15
5.684210526315785	9.20	0.15	-7.28	-5.62
5.736842105263153	10.85	0.30	-7.86	-7.48
5.789473684210521	8.83	0.81	-6.94	-5.40
5.842105263157889	8.88	0.34	-6.36	-6.19
5.8947368421052575	11.26	0.34	-8.93	-6.86
5.947368421052626	11.35	1.20	-9.11	-6.67
5.999999999999994	10.01	-0.00	-6.93	-7.22
6.052631578947362	7.97	1.11	-5.74	-5.41
6.10526315789473	10.87	1.15	-6.60	-8.56
6.157894736842098	11.80	-0.77	-8.71	-7.92
6.210526315789466	10.86	1.16	-8.56	-6.59
6.2631578947368345	11.41	0.69	-8.67	-7.38
6.315789473684203	9.33	0.44	-7.84	-5.04
6.368421052631571	9.16	1.36	-6.72	-6.08
6.421052631578939	9.27	0.80	-6.08	-6.94
6.473684210526307	8.17	0.38	-6.90	-4.36
6.526315789473675	10.95	0.36	-7.44	-8.03
6.578947368421043	10.07	0.70	-7.68	-6.47
6.6315789473684115	9.28	0.74	-7.36	-5.59
6.68421052631578	10.39	1.31	-7.22	-7.35
6.736842105263148	9.14	1.54	-5.78	-6.91
6.789473684210516	10.83	-0.42	-7.27	-8.02
6.842105263157884	11.37	1.12	-8.16	-7.85
6.894736842105252	12.28	1.93	-8.41	-8.74
6.94736842105262	12.26	0.70	-8.24	-9.05
6.9999999999999885	10.26	0.52	-8.64	-5.52
7.052631578947357	10.17	0.96	-7.10	-7.22
7.105263157894725	10.89	-0.01	-7.83	-7.57
7.157894736842093	9.30	0.38	-8.07	-4.61
7.210526315789461	8.63	-0.56	-7.17	-4.76
7.263157894736829	9.12	-0.67	-7.16	-5.61
7.315789473684197	10.16	1.36	-7.25	-6.99
7.368421052631565	10.43	-0.57	-7.24	-7.48
7.421052631578934	12.27	0.12	-7.95	-9.34
7.473684210526302	10.45	1.67	-7.36	-7.23
7.52631578947367	7.19	1.09	-5.18	-4.87
7.578947368421038	9.74	1.26	-4.99	-8.27
7.631578947368406	10.84	2.86	-6.87	-7.89
7.684210526315774	8.37	2.27	-5.74	-5.65
7.736842105263142	10.27	1.34	-5.74	-8.41
7.789473684210511	11.17	1.99	-7.70	-7.84
7.842105263157879	9.98	1.36	-7.64	-6.27
7.894736842105247	10.99	0.27	-8.35	-7.15
7.947368421052615	9.91	1.56	-8.38	-5.05
7.999999999999983	8.63	1.38	-6.26	-5.78
8.052631578947352	9.79	0.47	-5.67	-7.96
8.10526315789472	9.72	1.22	-5.92	-7.61
8.157894736842088	8.44	2.22	-5.31	-6.17
8.210526315789457	10.45	0.24	-6.43	-8.23
8.263157894736825	10.38	0.61	-7.54	-7.11
8.315789473684193	10.32	0.34	-8.57	-5.74
8.368421052631561	10.14	-0.25	-8.56	-5.44
8.42105263157893	11.45	-0.71	-8.57	-7.56
8.473684210526297	9.74	-0.26	-7.76	-5.89
8.526315789473665	9.84	0.28	-7.11	-6.80
8.578947368421034	9.69	0.45	-6.67	-7.02
8.631578947368402	8.27	0.22	-6.28	-5.38
8.68421052631577	9.75	-1.12	-7.85	-5.68
8.736842105263138	10.76	1.13	-7.55	-7.59
8.789473684210506	10.62	1.28	-8.01	-6.86
8.842105263157874	10.85	0.16	-8.66	-6.53
8.894736842105242	11.02	0.57	-8.38	-7.14
8.94736842105261	8.90	-0.49	-7.48	-4.80
8.999999999999979	9.00	0.54	-7.11	-5.49
9.052631578947347	8.71	1.62	-5.95	-6.15
9.105263157894715	9.28	0.59	-6.16	-6.92
9.157894736842083	10.45	2.59	-6.27	-7.96
9.210526315789451	8.67	1.55	-6.16	-5.91
9.26315789473682	11.66	-0.18	-8.80	-7.64
9.315789473684188	10.13	0.08	-8.73	-5.14
9.368421052631556	10.34	0.32	-8.39	-6.03
9.421052631578924	11.01	0.51	-8.29	-7.23
9.473684210526292	9.23	1.16	-6.27	-6.67
9.52631578947366	9.30	0.28	-6.45	-6.70
9.578947368421028	9.94	0.25	-7.10	-6.95
9.631578947368396	9.06	0.01	-7.46	-5.14
9.684210526315765	9.12	0.06	-6.95	-5.90
9.736842105263133	9.64	1.31	-7.36	-6.08
9.7894736842105	9.66	0.43	-7.66	-5.86
9.842105263157869	11.72	0.25	-8.63	-7.92
9.894736842105237	10.69	0.00	-8.09	-6.98
9.947368421052605	9.21	0.19	-7.61	-5.19
9.999999999999973	10.07	0.10	-7.03	-7.22
10.052631578947341	11.43	0.33	-6.76	-9.22
10.10526315789471	9.88	1.62	-6.91	-6.86
10.157894736842078	10.65	0.23	-7.72	-7.34
10.210526315789446	11.14	0.27	-8.07	-7.67
10.263157894736814	10.06	0.50	-8.22	-5.77
10.315789473684182	11.60	-0.86	-9.04	-7.21
10.36842105263155	10.36	0.03	-8.69	-5.64
10.421052631578918	8.39	1.17	-6.63	-5.00
10.473684210526287	9.28	0.64	-5.62	-7.36
10.526315789473655	10.92	0.17	-6.89	-8.47
10.578947368421023	9.06	0.13	-6.87	-5.90
10.631578947368391	10.18	-0.47	-7.02	-7.36
10.68421052631576	10.33	0.67	-7.84	-6.70
10.736842105263127	10.74	1.04	-7.85	-7.26
10.789473684210495	11.68	-0.95	-9.22	-7.10
10.842105263157864	8.76	0.64	-7.40	-4.65
10.894736842105232	8.09	1.02	-5.81	-5.54
10.9473684210526	8.60	0.63	-6.67	-5.39
10.999999999999968	9.32	0.80	-6.68	-6.45
11.052631578947336	10.13	-0.22	-7.31	-7.01
11.105263157894704	11.21	-0.03	-7.62	-8.22
11.157894736842072	10.90	0.69	-8.39	-6.92
11.21052631578944	9.09	0.07	-6.97	-5.83
11.263157894736809	9.25	-0.77	-6.85	-6.16
11.315789473684177	10.48	-0.40	-7.69	-7.10
11.368421052631545	10.98	0.29	-8.36	-7.11
11.421052631578913	10.70	0.61	-8.21	-6.84
11.473684210526281	8.47	0.77	-6.51	-5.37
11.52631578947365	9.94	0.22	-7.86	-6.09
11.578947368421018	9.44	0.31	-6.84	-6.50
11.631578947368386	9.09	-0.32	-6.80	-6.02
11.684210526315754	9.81	0.55	-6.35	-7.46
11.736842105263122	9.90	-0.95	-7.39	-6.53
11.78947368421049	11.67	-0.92	-9.46	-6.78
11.842105263157858	9.17	1.23	-6.66	-6.19
11.894736842105226	10.82	-1.03	-9.24	-5.53
11.947368421052595	9.55	0.77	-7.51	-5.86
11.999999999999963	9.53	-0.49	-6.80	-6.65
12.05263157894733	9.54	-0.95	-6.81	-6.61
12.105263157894699	11.41	-0.17	-8.20	-7.93
12.157894736842067	9.43	1.35	-6.51	-6.69
12.210526315789435	10.92	-0.25	-7.74	-7.70
12.263157894736803	11.22	0.10	-8.31	-7.53
12.315789473684172	8.52	0.28	-7.26	-4.46
12.36842105263154	8.83	1.18	-6.24	-6.14
12.421052631578908	7.82	1.96	-5.57	-5.13
12.473684210526276	11.41	0.03	-7.62	-8.50
12.526315789473644	9.78	-0.67	-7.43	-6.32
12.578947368421012	8.26	0.69	-5.90	-5.75
12.63157894736838	7.88	0.43	-6.09	-4.98
12.684210526315749	9.13	-0.36	-7.15	-5.68
12.736842105263117	10.96	-0.15	-8.59	-6.80
12.789473684210485	10.33	0.70	-8.24	-6.18
12.842105263157853	12.33	1.08	-8.27	-9.08
12.894736842105221	9.87	1.91	-7.08	-6.61
12.94736842105259	9.98	0.99	-6.95	-7.09
12.999999999999957	8.21	-0.79	-6.48	-4.98
13.052631578947326	9.19	-0.65	-6.95	-5.98
13.105263157894694	11.12	1.05	-8.15	-7.50
13.157894736842062	10.54	1.15	-8.07	-6.68
13.21052631578943	10.37	-0.00	-8.18	-6.38
13.263157894736798	9.68	-1.35	-7.95	-5.35
13.315789473684166	12.01	-1.99	-10.31	-5.82
13.368421052631534	10.94	-0.42	-9.39	-5.59
13.421052631578902	9.92	-1.00	-8.11	-5.62
13.47368421052627	11.83	-1.51	-9.39	-7.03
13.526315789473639	10.16	1.03	-7.98	-6.20
13.578947368421007	8.24	2.13	-6.21	-4.98
13.631578947368375	11.98	-1.02	-10.25	-6.12
13.684210526315743	7.90	0.53	-6.65	-4.23
13.736842105263111	10.56	0.66	-6.28	-8.47
13.78947368421048	11.58	-1.61	-7.67	-8.52
13.842105263157848	9.36	-0.08	-8.15	-4.62
13.894736842105216	10.26	-0.13	-7.70	-6.78
13.947368421052584	11.71	0.30	-6.78	-9.55
13.999999999999952	12.19	1.10	-8.72	-8.45
14.05263157894732	10.93	1.02	-9.10	-5.97
14.105263157894688	11.52	0.14	-9.28	-6.83
14.157894736842056	10.25	0.33	-7.95	-6.46
14.210526315789425	8.47	-0.66	-6.79	-5.02
14.263157894736793	7.09	-0.30	-5.06	-4.97
14.31578947368416	11.19	0.01	-8.24	-7.58
14.368421052631529	10.86	1.27	-9.15	-5.71
14.421052631578897	11.92	1.63	-8.85	-7.82
14.473684210526265	8.98	0.44	-7.10	-5.47
14.526315789473633	10.15	-0.12	-7.39	-6.95
14.578947368421002	8.87	-0.37	-6.73	-5.76
14.63157894736837	8.10	0.50	-6.17	-5.22
14.684210526315738	9.17	1.68	-6.69	-6.04
14.736842105263106	10.31	0.19	-8.46	-5.88
14.789473684210474	10.21	1.77	-8.03	-6.06
14.842105263157842	10.72	2.24	-7.59	-7.24
14.89473684210521	10.34	0.78	-8.81	-5.35
14.947368421052579	11.45	1.62	-9.01	-6.89
14.999999999999947	10.87	1.15	-8.00	-7.28
15.052631578947315	9.04	1.45	-6.55	-6.05
15.105263157894683	10.33	1.39	-6.70	-7.73
15.157894736842051	10.23	-0.09	-7.91	-6.48
15.21052631578942	10.52	0.83	-8.35	-6.35
15.263157894736787	9.22	0.82	-8.08	-4.37
15.315789473684156	9.34	1.42	-7.74	-5.03
15.368421052631524	9.70	1.07	-7.42	-6.16
15.421052631578892	8.53	0.88	-7.25	-4.40
15.47368421052626	9.55	-0.20	-6.42	-7.06
15.526315789473628	10.02	1.04	-6.84	-7.25
15.578947368420996	10.92	1.19	-8.57	-6.65
15.631578947368364	10.66	0.76	-7.90	-7.12
15.684210526315733	10.20	0.73	-7.68	-6.68
15.7368421052631	10.84	0.34	-8.84	-6.27
15.789473684210469	9.52	0.04	-8.19	-4.86
15.842105263157837	9.67	0.77	-7.85	-5.60
15.894736842105205	11.88	1.60	-8.12	-8.52
15.947368421052573	10.66	1.03	-7.19	-7.80
15.999999999999941	11.07	0.79	-8.18	-7.43
16.05263157894731	8.58	0.92	-6.95	-4.95
16.10526315789468	9.43	0.74	-6.91	-6.38
16.15789473684205	9.25	1.69	-6.94	-5.87
16.21052631578942	11.12	1.10	-7.69	-7.95
16.26315789473679	10.60	0.34	-8.14	-6.79
16.31578947368416	9.55	1.32	-7.62	-5.62
16.36842105263153	8.25	1.23	-6.57	-4.85
16.4210526315789	9.09	1.30	-6.14	-6.57
16.47368421052627	8.94	-0.20	-7.69	-4.56
16.52631578947364	10.00	1.70	-6.82	-7.12
16.57894736842101	11.20	0.98	-7.53	-8.24
16.63157894736838	11.60	0.46	-8.38	-8.01
16.68421052631575	9.89	-0.40	-8.66	-4.77
16.73684210526312	8.98	-0.26	-8.42	-3.11
16.78947368421049	9.48	0.46	-7.51	-5.76
16.84210526315786	10.45	0.58	-7.99	-6.71
16.894736842105228	12.07	-0.70	-9.81	-6.99
16.947368421052598	9.83	1.02	-7.82	-5.87
16.999999999999968	8.95	1.74	-4.94	-7.25
17.052631578947338	10.08	-0.14	-6.59	-7.63
17.105263157894708	11.11	0.88	-7.39	-8.26
17.157894736842078	11.88	0.98	-8.06	-8.67
17.210526315789448	8.54	0.91	-6.54	-5.41
17.263157894736818	8.16	1.96	-5.58	-5.62
17.315789473684188	10.47	2.32	-6.13	-8.16
17.368421052631557	8.43	2.36	-5.48	-5.96
17.421052631578927	10.38	2.24	-5.46	-8.54
17.473684210526297	9.97	3.30	-5.41	-7.69
17.526315789473667	7.28	0.74	-6.06	-3.96
17.578947368421037	9.80	0.53	-6.95	-6.89
17.631578947368407	8.59	2.70	-5.60	-5.93
17.684210526315777	7.57	1.06	-5.52	-5.07
17.736842105263147	6.87	0.68	-5.33	-4.29
17.789473684210517	8.33	2.05	-5.28	-6.11
17.842105263157887	11.88	0.84	-7.36	-9.28
17.894736842105257	10.58	-0.19	-8.42	-6.41
17.947368421052627	11.65	1.03	-7.59	-8.77
17.999999999999996	8.98	1.97	-6.81	-5.52
18.052631578947366	11.05	0.91	-6.07	-9.19
18.105263157894736	8.83	-0.28	-6.95	-5.44
18.157894736842106	9.36	0.36	-8.21	-4.48
18.210526315789476	10.08	0.21	-7.87	-6.29
18.263157894736846	10.05	0.50	-7.86	-6.26
18.315789473684216	11.90	0.30	-8.68	-8.13
18.368421052631586	10.35	-0.04	-8.28	-6.21
18.421052631578956	8.57	0.30	-7.35	-4.39
18.473684210526326	9.46	0.94	-6.92	-6.38
18.526315789473696	9.29	0.18	-6.68	-6.45
18.578947368421066	9.13	0.80	-6.78	-6.06
18.631578947368435	11.02	0.62	-8.29	-7.24
18.684210526315805	10.99	-0.37	-8.73	-6.67
18.736842105263175	10.82	0.12	-8.59	-6.58
18.789473684210545	9.92	0.67	-7.76	-6.14
18.842105263157915	9.66	-0.28	-7.78	-5.71
18.894736842105285	9.91	-0.20	-7.48	-6.50
18.947368421052655	10.46	0.64	-7.49	-7.28
19.000000000000025	9.93	0.02	-7.57	-6.43
19.052631578947395	9.37	1.12	-7.23	-5.86
19.105263157894765	9.61	0.78	-7.27	-6.24
19.157894736842135	9.36	1.38	-7.07	-5.98
19.210526315789505	10.72	-0.04	-8.50	-6.54
19.263157894736874	12.23	-0.16	-9.22	-8.03
19.315789473684244	10.01	0.00	-8.38	-5.48
19.368421052631614	9.14	0.12	-7.26	-5.55
19.421052631578984	8.53	0.74	-6.17	-5.85
19.473684210526354	8.64	1.13	-6.50	-5.58
19.526315789473724	9.93	0.08	-7.49	-6.52
19.578947368421094	11.96	0.27	-8.80	-8.10
19.631578947368464	9.90	1.38	-7.63	-6.15
19.684210526315834	10.88	0.99	-7.45	-7.86
19.736842105263204	8.87	0.17	-7.53	-4.68
19.789473684210574	9.96	1.13	-8.21	-5.51
19.842105263157944	10.27	1.18	-6.99	-7.43
19.894736842105313	11.14	-0.25	-8.49	-7.20
19.947368421052683	9.33	1.07	-7.68	-5.19
20.000000000000053	9.20	0.33	-7.03	-5.92
20.052631578947423	9.19	0.59	-7.62	-5.10
20.105263157894793	10.67	2.07	-7.41	-7.39
20.157894736842163	12.33	1.17	-6.91	-10.14
20.210526315789533	8.89	0.37	-6.61	-5.93
20.263157894736903	7.66	1.11	-6.02	-4.61
20.315789473684273	9.62	0.05	-6.61	-6.99
20.368421052631643	9.72	0.39	-6.54	-7.18
20.421052631579013	8.66	1.45	-6.47	-5.58
20.473684210526383	8.40	0.97	-6.41	-5.34
20.526315789473752	8.24	0.71	-5.75	-5.86
20.578947368421122	11.31	0.40	-7.52	-8.43
20.631578947368492	11.35	0.60	-8.16	-7.86
20.684210526315862	9.60	-0.12	-7.97	-5.35
20.736842105263232	10.98	1.17	-8.42	-6.95
20.789473684210602	11.03	1.49	-7.58	-7.87
20.842105263157972	11.61	-0.36	-8.69	-7.69
20.894736842105342	12.04	0.98	-8.54	-8.43
20.947368421052712	10.53	1.63	-6.53	-8.09
21.00000000000008	9.76	0.24	-7.70	-5.99
21.05263157894745	8.87	1.85	-6.83	-5.34
21.10526315789482	9.87	1.45	-5.55	-8.03
21.15789473684219	11.32	0.17	-7.90	-8.10
21.21052631578956	9.15	1.48	-6.97	-5.74
21.26315789473693	9.18	0.65	-5.88	-7.02
21.3157894736843	10.33	1.05	-6.90	-7.61
21.36842105263167	8.54	1.52	-6.24	-5.62
21.42105263157904	10.45	0.14	-7.05	-7.71
21.47368421052641	10.90	0.89	-8.36	-6.94
21.52631578947378	11.22	2.27	-6.98	-8.48
21.57894736842115	9.67	0.69	-5.96	-7.59
21.63157894736852	7.91	1.09	-6.32	-4.64
21.68421052631589	10.12	1.26	-7.37	-6.81
21.73684210526326	9.67	-0.00	-8.05	-5.35
21.78947368421063	11.23	1.10	-7.59	-8.20
21.842105263158	9.67	2.06	-6.80	-6.55
21.89473684210537	9.94	0.37	-7.08	-6.97
21.94736842105274	9.97	0.41	-7.69	-6.34
22.00000000000011	10.30	1.57	-6.81	-7.58
22.05263157894748	10.73	0.77	-6.11	-8.79
22.10526315789485	9.29	0.32	-6.71	-6.42
22.15789473684222	11.70	0.67	-7.99	-8.52
22.21052631578959	10.87	1.59	-6.27	-8.74
22.26315789473696	11.63	0.03	-8.11	-8.34
22.31578947368433	9.83	0.21	-7.58	-6.25
22.3684210526317	9.41	1.63	-6.56	-6.54
22.42105263157907	12.86	0.45	-8.16	-9.93
22.47368421052644	12.77	1.32	-7.69	-10.11
22.52631578947381	11.69	-0.17	-9.44	-6.89
22.57894736842118	11.15	-0.65	-9.57	-5.67
22.63157894736855	13.73	0.42	-10.08	-9.32
22.68421052631592	8.16	0.83	-7.35	-3.44
22.73684210526329	8.86	0.62	-6.88	-5.56
22.78947368421066	7.95	2.37	-4.45	-6.15
22.84210526315803	12.78	2.79	-6.41	-10.69
22.8947368421054	7.68	0.85	-6.37	-4.21
22.94736842105277	12.75	1.42	-8.90	-9.01
23.00000000000014	12.34	0.80	-9.16	-8.23
23.05263157894751	12.85	2.59	-6.80	-10.59
23.10526315789488	10.14	0.90	-8.68	-5.15
23.15789473684225	10.44	0.24	-7.68	-7.06
23.210526315789618	6.45	0.75	-4.89	-4.15
23.263157894736988	10.46	0.41	-6.06	-8.51
23.315789473684358	11.31	-0.72	-7.13	-8.75
23.368421052631728	12.78	-1.13	-10.04	-7.82
23.421052631579098	9.07	2.22	-5.67	-6.73
23.473684210526468	9.97	0.17	-8.70	-4.87
23.526315789473838	11.35	1.47	-8.31	-7.58
23.578947368421208	12.79	1.66	-7.75	-10.04
23.631578947368578	11.47	1.07	-7.02	-9.00
23.684210526315947	9.11	1.39	-7.13	-5.50
23.736842105263317	9.67	0.57	-7.00	-6.65
23.789473684210687	9.77	1.42	-7.29	-6.34
23.842105263158057	8.20	2.05	-5.67	-5.56
23.894736842105427	11.29	0.34	-7.69	-8.26
23.947368421052797	9.27	0.99	-6.88	-6.14
24.000000000000167	9.32	0.73	-7.51	-5.47
24.052631578947537	9.02	-0.91	-7.14	-5.44
24.105263157894907	11.08	0.33	-8.65	-6.91
24.157894736842277	11.31	2.59	-8.61	-6.85
24.210526315789647	10.94	0.14	-7.42	-8.03
24.263157894737017	10.53	-0.11	-7.73	-7.14
24.315789473684386	8.92	2.03	-7.15	-4.93
24.368421052631756	11.40	1.98	-5.79	-9.62
24.421052631579126	7.55	0.44	-5.87	-4.73
24.473684210526496	9.00	0.51	-7.53	-4.90
24.526315789473866	9.67	0.84	-7.92	-5.48
24.578947368421236	10.63	2.04	-7.46	-7.30
24.631578947368606	8.88	-0.41	-7.93	-3.96
24.684210526315976	11.49	0.33	-8.95	-7.20
24.736842105263346	9.79	-0.05	-7.89	-5.80
24.789473684210716	10.57	0.93	-8.47	-6.26
24.842105263158086	9.08	0.37	-7.83	-4.58
24.894736842105456	11.94	1.22	-8.38	-8.41
24.947368421052825	8.60	0.53	-7.55	-4.07
25.000000000000195	10.45	-0.08	-8.98	-5.34
25.052631578947565	9.90	0.90	-7.16	-6.78
25.105263157894935	10.70	-0.42	-7.67	-7.45
25.157894736842305	10.89	-0.52	-8.83	-6.35
25.210526315789675	10.38	0.26	-7.35	-7.32
25.263157894737045	12.24	0.15	-8.11	-9.17
25.315789473684415	8.51	0.32	-7.41	-4.16
25.368421052631785	9.30	0.45	-7.02	-6.09
25.421052631579155	8.05	0.84	-5.04	-6.23
25.473684210526525	11.02	-0.87	-7.44	-8.09
25.526315789473895	10.75	-0.38	-7.34	-7.85
25.578947368421264	11.42	1.79	-7.62	-8.31
25.631578947368634	8.98	0.39	-7.36	-5.13
25.684210526316004	8.87	0.92	-6.54	-5.92
25.736842105263374	12.06	0.98	-8.78	-8.21
25.789473684210744	11.74	1.12	-9.14	-7.27
25.842105263158114	10.13	-0.13	-9.25	-4.11
25.894736842105484	11.30	1.92	-9.19	-6.29
25.947368421052854	7.24	1.11	-6.15	-3.67
26.000000000000224	9.94	0.62	-6.92	-7.10
26.052631578947594	6.84	1.79	-5.18	-4.10
26.105263157894964	9.53	1.87	-5.64	-7.45
26.157894736842334	11.65	0.09	-7.61	-8.81
26.210526315789703	11.67	0.03	-10.51	-5.08
26.263157894737073	9.33	0.59	-8.92	-2.67
26.315789473684443	9.56	1.40	-7.87	-5.24
26.368421052631813	8.81	1.19	-7.33	-4.75
26.421052631579183	10.46	0.95	-6.96	-7.74
26.473684210526553	8.19	-0.03	-6.58	-4.87
26.526315789473923	9.58	0.38	-6.51	-7.02
26.578947368421293	9.96	-0.12	-7.52	-6.54
26.631578947368663	9.98	0.08	-7.00	-7.12
26.684210526316033	10.72	-1.19	-7.93	-7.12
26.736842105263403	9.36	0.40	-7.13	-6.05
26.789473684210773	9.21	1.41	-6.00	-6.84
26.842105263158142	11.00	-1.43	-8.70	-6.59
26.894736842105512	12.18	-0.76	-8.85	-8.33
26.947368421052882	10.42	1.23	-7.61	-7.02
27.000000000000252	10.45	-0.18	-7.50	-7.27
27.052631578947622	9.77	-1.01	-8.38	-4.92
27.105263157894992	11.27	1.66	-8.07	-7.69
27.157894736842362	9.02	2.01	-6.30	-6.14
27.210526315789732	9.09	0.27	-7.65	-4.90
27.263157894737102	8.93	1.07	-6.83	-5.66
27.31578947368447	12.25	2.43	-6.94	-9.79
27.36842105263184	9.57	0.09	-8.22	-4.89
27.42105263157921	11.65	-0.67	-9.67	-6.48
27.47368421052658	10.35	0.91	-8.84	-5.31
27.52631578947395	10.47	0.58	-8.03	-6.69
27.57894736842132	15.31	-1.99	-10.98	-10.48
27.63157894736869	7.95	-0.45	-7.84	-1.24
27.68421052631606	6.22	0.50	-4.92	-3.76
27.73684210526343	10.14	-1.99	-5.41	-8.34
27.7894736842108	8.48	1.88	-4.96	-6.61
27.84210526315817	13.87	-0.82	-9.24	-10.31
27.89473684210554	14.65	-4.49	-13.05	-4.93
27.94736842105291	13.24	-2.70	-10.86	-7.09
28.00000000000028	11.33	-0.04	-8.94	-6.96
28.05263157894765	7.79	0.90	-5.50	-5.44
28.10526315789502	9.32	1.60	-5.17	-7.59
28.15789473684239	12.64	0.39	-7.42	-10.23
28.21052631578976	11.59	0.85	-7.70	-8.62
28.26315789473713	10.28	2.24	-5.62	-8.32
28.3157894736845	8.33	0.44	-7.84	-2.79
28.36842105263187	9.38	1.60	-6.45	-6.63
28.42105263157924	8.47	0.63	-7.11	-4.56
28.47368421052661	14.89	0.58	-10.42	-10.62
28.52631578947398	9.36	0.34	-8.33	-4.26
28.57894736842135	8.38	0.42	-5.50	-6.30
28.63157894736872	6.87	0.24	-3.57	-5.87
28.68421052631609	11.92	3.68	-6.61	-9.21
28.73684210526346	8.96	3.64	-6.35	-5.17
28.78947368421083	13.15	0.13	-8.21	-10.27
28.8421052631582	7.91	1.73	-6.16	-4.65
28.89473684210557	7.01	2.42	-4.33	-4.96
28.94736842105294	11.20	-0.99	-7.19	-8.53
29.00000000000031	10.03	-0.97	-8.83	-4.67
29.05263157894768	9.03	0.94	-6.41	-6.29
29.10526315789505	10.50	-1.21	-8.14	-6.52
29.15789473684242	8.91	0.48	-6.95	-5.57
29.21052631578979	11.40	0.77	-6.92	-9.03
29.26315789473716	8.58	-0.69	-6.24	-5.85
29.31578947368453	11.18	-0.26	-8.38	-7.39
29.3684210526319	8.26	1.07	-6.48	-5.01
29.42105263157927	12.17	0.04	-7.32	-9.72
29.47368421052664	8.85	0.31	-7.02	-5.38
29.52631578947401	9.68	1.91	-6.94	-6.47
29.578947368421378	9.99	0.39	-7.27	-6.84
29.631578947368748	10.32	0.04	-7.64	-6.95
29.684210526316118	10.53	0.56	-7.65	-7.20
29.736842105263488	9.01	1.53	-7.04	-5.41
29.789473684210858	11.45	1.73	-6.78	-9.07
29.842105263158228	8.80	0.95	-5.27	-6.98
29.894736842105598	10.22	1.06	-5.72	-8.40
29.947368421052968	10.01	0.62	-6.37	-7.69
30.000000000000338	8.51	0.15	-7.00	-4.83
30.052631578947707	9.44	0.54	-7.04	-6.26
30.105263157895077	11.91	1.34	-8.15	-8.58
30.157894736842447	11.41	0.93	-6.89	-9.05
30.210526315789817	9.58	-1.24	-7.56	-5.75
30.263157894737187	6.95	0.90	-5.22	-4.50
30.315789473684557	9.24	0.41	-4.99	-7.76
30.368421052631927	10.20	-0.60	-6.69	-7.68
30.421052631579297	12.05	-0.99	-8.78	-8.20
30.473684210526667	7.58	1.71	-5.07	-5.37
30.526315789474037	12.26	0.74	-5.30	-11.03
30.578947368421407	7.69	0.29	-6.84	-3.50
30.631578947368777	11.94	2.09	-6.61	-9.72
30.684210526316146	6.88	1.44	-3.22	-5.90
30.736842105263516	9.95	0.92	-6.53	-7.45
30.789473684210886	6.89	1.78	-4.77	-4.64
30.842105263158256	13.66	2.27	-9.34	-9.71
30.894736842105626	10.82	0.80	-9.90	-4.29
30.947368421052996	12.71	-1.29	-11.13	-5.99
31.000000000000366	9.88	0.15	-7.87	-5.96
31.052631578947736	10.17	2.88	-6.76	-7.03
31.105263157895106	8.41	1.26	-7.29	-3.99
31.157894736842476	9.08	-0.63	-7.50	-5.09
31.210526315789846	10.71	0.38	-6.80	-8.27
31.263157894737216	9.61	1.37	-6.98	-6.46
31.315789473684585	9.67	-0.13	-6.60	-7.07
31.368421052631955	9.83	-0.12	-7.72	-6.08
31.421052631579325	10.41	2.29	-6.23	-8.02
31.473684210526695	11.37	1.13	-6.25	-9.44
31.526315789474065	8.29	0.92	-6.20	-5.43
31.578947368421435	9.33	1.23	-7.21	-5.79
31.631578947368805	9.43	0.90	-6.06	-7.17
31.684210526316175	9.95	-0.09	-6.59	-7.45
31.736842105263545	10.56	0.38	-7.85	-7.05
31.789473684210915	10.27	1.08	-7.08	-7.37
31.842105263158285	11.26	1.15	-6.37	-9.22
31.894736842105655	9.71	1.07	-6.77	-6.87
31.947368421053024	9.65	0.04	-7.63	-5.91
32.00000000000039	10.16	1.25	-7.91	-6.25
32.05263157894776	8.82	1.09	-6.41	-5.96
32.10526315789513	10.70	-0.60	-7.89	-7.20
32.1578947368425	10.82	0.59	-8.48	-6.70
32.21052631578987	10.33	1.81	-7.15	-7.23
32.26315789473724	10.34	0.61	-6.71	-7.85
32.31578947368461	8.57	0.14	-7.19	-4.67
32.36842105263198	7.94	0.62	-5.68	-5.52
32.42105263157935	8.66	2.15	-4.56	-7.05
32.47368421052672	9.20	0.49	-6.78	-6.21
32.52631578947409	12.17	0.81	-7.36	-9.66
32.57894736842146	7.29	0.41	-6.83	-2.52
32.63157894736883	11.08	0.40	-6.96	-8.62
32.6842105263162	9.71	-0.85	-7.72	-5.83
32.73684210526357	14.15	0.01	-9.82	-10.19
32.78947368421094	9.98	1.87	-5.96	-7.78
32.84210526315831	10.72	1.76	-6.86	-8.05
32.89473684210568	7.87	0.15	-6.21	-4.84
32.94736842105305	9.45	-0.57	-7.51	-5.71
33.00000000000042	9.95	1.54	-6.33	-7.52
33.05263157894779	10.88	0.81	-8.12	-7.19
33.10526315789516	10.76	0.35	-7.82	-7.38
33.15789473684253	11.50	-0.35	-8.82	-7.37
33.2105263157899	9.45	0.54	-7.71	-5.45
33.26315789473727	11.70	0.21	-8.46	-8.08
33.31578947368464	10.00	1.21	-6.84	-7.20
33.36842105263201	9.26	-0.02	-7.02	-6.04
33.42105263157938	10.18	1.81	-6.89	-7.28
33.47368421052675	9.15	0.82	-6.58	-6.31
33.52631578947412	13.70	-1.76	-8.69	-10.44
33.57894736842149	8.82	0.72	-7.15	-5.11
33.63157894736886	11.26	1.78	-6.94	-8.69
33.68421052631623	11.91	-1.10	-9.10	-7.61
33.7368421052636	8.26	-0.42	-7.27	-3.91
33.78947368421097	8.25	-1.36	-6.28	-5.17
33.84210526315834	9.40	0.87	-4.93	-7.95
33.89473684210571	8.30	2.06	-4.34	-6.77
33.94736842105308	9.88	0.49	-5.23	-8.36
34.00000000000045	8.81	0.07	-6.43	-6.02
34.05263157894782	7.95	1.51	-6.44	-4.42
34.10526315789519	12.41	1.70	-6.70	-10.31
34.15789473684256	8.28	0.73	-6.98	-4.40
34.21052631578993	10.68	-0.77	-7.29	-7.76
34.2631578947373	10.45	-1.22	-7.11	-7.56
34.31578947368467	12.15	1.26	-8.78	-8.30
34.36842105263204	10.49	0.59	-9.08	-5.22
34.42105263157941	8.56	1.36	-6.67	-5.19
34.47368421052678	13.67	2.41	-7.30	-11.31
34.52631578947415	14.75	1.58	-9.33	-11.31
34.57894736842152	10.71	-0.49	-10.17	-3.31
34.63157894736889	12.64	-2.74	-11.62	-4.16
34.68421052631626	10.60	1.06	-8.62	-6.09
34.73684210526363	11.97	2.16	-6.61	-9.75
34.789473684210996	11.32	-1.50	-9.65	-5.72
34.842105263158366	11.17	0.46	-7.38	-8.38
34.894736842105736	7.96	1.54	-5.84	-5.19
34.947368421053106	9.22	0.43	-5.76	-7.18
35.000000000000476	11.39	-1.22	-8.09	-7.93
35.052631578947846	8.98	2.24	-4.67	-7.34
35.105263157895216	10.98	0.48	-6.30	-8.98
35.157894736842586	9.87	0.63	-7.61	-6.26
35.210526315789956	10.39	-0.44	-8.42	-6.08
35.263157894737326	9.03	0.72	-7.98	-4.18
35.315789473684696	10.89	2.41	-6.24	-8.60
35.368421052632065	11.51	-0.78	-8.38	-7.86
35.421052631579435	8.96	0.20	-7.73	-4.51
35.473684210526805	8.89	0.07	-7.73	-4.39
35.526315789474175	10.21	0.53	-8.04	-6.26
35.578947368421545	8.28	0.55	-6.64	-4.91
35.631578947368915	9.01	-0.49	-6.21	-6.51
35.684210526316285	13.15	-1.10	-8.74	-9.77
35.736842105263655	9.26	-0.55	-8.67	-3.20
35.789473684211025	11.96	-1.28	-9.68	-6.91
35.842105263158395	9.02	0.50	-7.54	-4.93
35.894736842105765	10.29	2.40	-6.05	-7.97
35.947368421053135	10.58	-0.19	-7.22	-7.73
36.000000000000504	12.85	0.30	-10.67	-7.15
36.052631578947874	11.09	0.19	-8.52	-7.09
36.105263157895244	9.66	1.38	-6.36	-7.14
36.157894736842614	8.63	0.35	-6.37	-5.81
36.210526315789984	9.19	-1.04	-7.57	-5.11
36.263157894737354	10.34	1.09	-7.56	-6.97
36.315789473684724	12.77	2.22	-8.67	-9.12
36.368421052632094	9.67	1.06	-7.14	-6.44
36.421052631579464	8.82	0.47	-7.11	-5.21
36.473684210526834	9.38	0.88	-5.65	-7.43
36.526315789474204	8.35	0.99	-4.69	-6.84
36.578947368421574	9.54	0.10	-5.96	-7.45
36.63157894736894	10.95	0.06	-7.81	-7.67
36.68421052631631	11.40	0.94	-8.22	-7.84
36.73684210526368	12.25	1.30	-8.00	-9.18
36.78947368421105	10.05	-0.52	-8.03	-6.03
36.84210526315842	10.63	-0.22	-9.10	-5.49
36.89473684210579	7.73	1.02	-6.00	-4.77
36.94736842105316	7.78	1.52	-4.64	-6.06
37.00000000000053	7.69	0.67	-4.69	-6.05
37.0526315789479	9.59	-0.29	-5.86	-7.59
37.10526315789527	11.69	0.44	-7.96	-8.55
37.15789473684264	12.94	1.10	-8.97	-9.26
37.21052631579001	10.20	-0.91	-8.25	-5.93
37.26315789473738	12.72	-2.47	-11.14	-5.61
37.31578947368475	10.35	0.22	-9.11	-4.91
37.36842105263212	8.63	1.92	-6.13	-5.76
37.42105263157949	8.42	-0.24	-6.22	-5.68
37.47368421052686	8.67	0.08	-6.10	-6.17
37.52631578947423	8.29	0.79	-6.54	-5.03
37.5789473684216	9.62	1.48	-5.80	-7.53
37.63157894736897	8.51	1.28	-5.04	-6.74
37.68421052631634	10.00	-0.01	-6.67	-7.45
37.73684210526371	12.33	1.58	-7.27	-9.84
37.78947368421108	10.51	1.62	-7.84	-6.81
37.84210526315845	10.93	1.10	-7.42	-7.95
37.89473684210582	11.62	-0.73	-8.09	-8.31
37.94736842105319	12.66	1.30	-9.27	-8.53
38.00000000000056	7.40	0.35	-7.02	-2.33
38.05263157894793	11.96	-0.18	-8.37	-8.54
38.1052631578953	9.75	-0.98	-6.69	-7.02
38.15789473684267	10.75	1.96	-5.77	-8.86
38.21052631579004	6.31	1.11	-5.60	-2.68
38.26315789473741	10.90	0.37	-7.81	-7.59
38.31578947368478	4.32	0.45	-2.97	-3.10
38.36842105263215	12.10	0.43	-4.90	-11.05
38.42105263157952	10.05	0.06	-8.72	-5.00
38.47368421052689	10.97	-0.21	-9.67	-5.17
38.52631578947426	9.35	-0.68	-7.65	-5.34
38.57894736842163	10.06	3.60	-5.46	-7.65
38.631578947369	10.66	3.83	-4.68	-8.77
38.68421052631637	10.22	-0.35	-7.12	-7.33
38.73684210526374	11.49	-0.31	-6.80	-9.26
38.78947368421111	10.18	-0.05	-8.09	-6.18
38.84210526315848	10.92	0.88	-7.78	-7.61
38.89473684210585	10.35	1.20	-7.65	-6.87
38.94736842105322	10.88	0.92	-6.91	-8.35
39.00000000000059	9.06	0.41	-6.66	-6.14
39.05263157894796	9.38	0.61	-6.17	-7.04
39.10526315789533	9.34	-0.30	-7.29	-5.83
39.1578947368427	11.02	0.43	-8.56	-6.92
39.21052631579007	9.41	0.31	-8.06	-4.83
39.26315789473744	8.91	0.87	-6.89	-5.58
39.31578947368481	8.64	0.45	-6.97	-5.08
39.36842105263218	10.37	0.36	-7.51	-7.14
39.42105263157955	8.38	2.45	-4.88	-6.35
39.47368421052692	12.61	1.62	-6.49	-10.69
39.52631578947429	12.18	-1.47	-9.72	-7.19
39.57894736842166	10.42	0.78	-9.14	-4.94
39.63157894736903	7.32	0.07	-6.77	-2.78
39.6842105263164	10.29	0.03	-6.77	-7.74
39.73684210526377	8.33	1.49	-6.00	-5.58
39.78947368421114	8.57	2.30	-4.29	-7.06
39.84210526315851	9.00	0.05	-4.69	-7.68
39.89473684210588	10.38	-0.37	-5.89	-8.54
39.94736842105325	11.15	-0.02	-7.99	-7.77
40.00000000000062	8.88	0.08	-7.61	-4.57
40.05263157894799	11.08	-0.09	-6.96	-8.62
40.10526315789536	11.44	1.04	-7.42	-8.64
40.15789473684273	11.10	0.93	-8.89	-6.58
40.2105263157901	11.80	0.78	-8.65	-7.99
40.26315789473747	12.85	1.92	-8.59	-9.35
40.31578947368484	8.36	1.18	-7.16	-4.14
40.36842105263221	11.23	0.53	-7.97	-7.90
40.42105263157958	7.30	1.63	-5.25	-4.80
40.47368421052695	9.37	2.40	-4.85	-7.65
40.52631578947432	11.79	0.22	-6.54	-9.81
40.57894736842169	9.84	0.25	-8.46	-5.02
40.63157894736906	8.02	1.65	-5.32	-5.78
40.68421052631643	11.96	1.87	-6.00	-10.18
40.7368421052638	10.18	1.25	-5.92	-8.19
40.78947368421117	10.67	-0.19	-6.48	-8.48
40.84210526315854	10.41	-2.01	-8.56	-5.58
40.89473684210591	8.79	0.79	-7.17	-5.03
40.94736842105328	10.53	0.95	-6.07	-8.55
41.00000000000065	11.40	-0.02	-7.48	-8.60
41.05263157894802	11.77	0.86	-7.35	-9.15
41.105263157895386	8.43	-0.12	-7.50	-3.84
41.157894736842756	10.68	0.74	-6.76	-8.23
41.210526315790126	10.59	0.25	-7.76	-7.20
41.263157894737496	11.97	0.54	-9.70	-6.99
41.315789473684866	9.45	0.39	-8.43	-4.25
41.368421052632236	10.86	1.24	-7.09	-8.13
41.421052631579606	8.89	2.46	-5.06	-6.88
41.473684210526976	10.89	-0.42	-7.97	-7.41
41.526315789474346	9.26	0.02	-8.48	-3.72
41.578947368421716	9.99	1.64	-5.97	-7.84
41.631578947369086	7.51	2.00	-5.47	-4.73
41.684210526316456	9.75	1.13	-7.44	-6.20
41.736842105263825	11.26	-0.79	-9.37	-6.20
41.789473684211195	8.92	1.94	-6.67	-5.59
41.842105263158565	9.57	1.19	-4.91	-8.13
41.894736842105935	7.05	0.00	-6.08	-3.56
41.947368421053305	10.06	-0.77	-8.20	-5.78
42.000000000000675	11.50	0.74	-6.55	-9.42
42.052631578948045	8.69	2.76	-4.40	-6.97
42.105263157895415	13.14	-0.73	-7.70	-10.62
42.157894736842785	12.21	0.05	-10.44	-6.35
42.210526315790155	8.77	1.85	-7.07	-4.86
42.263157894737525	9.46	-1.22	-6.99	-6.25
42.315789473684895	12.54	-0.97	-7.35	-10.11
42.368421052632264	7.94	1.60	-6.83	-3.72
42.421052631579634	9.05	-0.94	-7.39	-5.13
42.473684210527004	9.68	0.46	-5.62	-7.87
42.526315789474374	9.05	-0.72	-6.86	-5.86
42.578947368421744	10.94	-1.19	-7.20	-8.16
42.631578947369114	10.60	-0.84	-9.09	-5.38
42.684210526316484	9.77	1.40	-6.96	-6.71
42.736842105263854	10.43	1.18	-6.61	-7.98
42.789473684211224	10.27	1.10	-5.92	-8.32
42.842105263158594	13.05	-1.10	-7.81	-10.40
42.894736842105964	10.91	-0.15	-8.86	-6.36
42.94736842105333	9.70	1.98	-7.00	-6.41
43.0000000000007	9.76	1.26	-6.82	-6.88
43.05263157894807	10.97	2.10	-7.08	-8.12
43.10526315789544	9.69	1.44	-6.98	-6.56
43.15789473684281	10.10	0.22	-6.98	-7.30
43.21052631579018	7.95	1.86	-4.87	-6.00
43.26315789473755	9.99	0.47	-6.77	-7.32
43.31578947368492	10.52	-0.57	-8.98	-5.46
43.36842105263229	11.06	0.99	-8.77	-6.66
43.42105263157966	12.04	1.10	-8.78	-8.17
43.47368421052703	11.54	0.36	-6.40	-9.59
43.5263157894744	9.96	-1.99	-7.09	-6.71
43.57894736842177	7.74	0.64	-6.17	-4.62
43.63157894736914	9.60	-0.24	-6.57	-7.00
43.68421052631651	10.39	-0.92	-8.44	-5.98
43.73684210526388	11.35	-0.26	-7.97	-8.08
43.78947368421125	9.26	-0.28	-7.88	-4.84
43.84210526315862	10.56	1.23	-7.68	-7.14
43.89473684210599	8.17	-0.09	-5.78	-5.78
43.94736842105336	11.35	-1.19	-7.24	-8.66
44.00000000000073	8.76	0.27	-6.02	-6.36
44.0526315789481	8.53	0.83	-7.15	-4.58
44.10526315789547	11.16	-0.09	-7.79	-7.98
44.15789473684284	10.15	1.66	-7.24	-6.92
44.21052631579021	12.03	1.87	-8.90	-7.88
44.26315789473758	12.29	0.56	-8.82	-8.54
44.31578947368495	9.54	0.42	-6.32	-7.14
44.36842105263232	8.10	0.35	-6.15	-5.26
44.42105263157969	10.62	-0.74	-7.71	-7.26
44.47368421052706	10.52	0.60	-8.47	-6.20
44.52631578947443	11.10	1.49	-7.85	-7.70
44.5789473684218	10.98	1.60	-6.36	-8.81
44.63157894736917	12.04	1.66	-5.82	-10.41
44.68421052631654	10.56	0.81	-6.30	-8.44
44.73684210526391	8.92	-0.56	-6.91	-5.61
44.78947368421128	9.23	-0.90	-8.43	-3.65
44.84210526315865	10.62	1.02	-8.18	-6.70
44.89473684210602	8.92	0.76	-6.26	-6.31
44.94736842105339	10.63	-0.64	-7.56	-7.45
45.00000000000076	10.60	0.05	-8.40	-6.47
45.05263157894813	7.87	0.74	-6.21	-4.78
45.1052631578955	10.63	1.24	-5.76	-8.84
45.15789473684287	9.76	1.01	-7.11	-6.60
45.21052631579024	10.31	1.14	-6.89	-7.58
45.26315789473761	9.17	0.44	-6.40	-6.56
45.31578947368498	5.61	1.52	-4.72	-2.63
45.36842105263235	9.30	1.61	-3.82	-8.32
45.42105263157972	7.17	1.68	-3.09	-6.25
45.47368421052709	10.03	0.40	-4.49	-8.97
45.52631578947446	12.46	-0.53	-9.81	-7.66
45.57894736842183	13.22	-0.03	-10.47	-8.08
45.6315789473692	8.96	0.86	-6.88	-5.68
45.68421052631657	10.45	-0.73	-7.56	-7.18
45.73684210526394	13.90	1.25	-10.69	-8.80
45.78947368421131	9.99	1.79	-8.54	-4.87
45.84210526315868	6.58	-0.51	-6.04	-2.56
45.89473684210605	11.31	-0.12	-6.12	-9.51
45.94736842105342	8.40	0.57	-6.45	-5.36
46.00000000000079	10.75	1.94	-6.07	-8.66
46.05263157894816	11.02	0.02	-6.65	-8.78
46.10526315789553	9.54	2.31	-5.98	-7.07
46.1578947368429	9.65	0.47	-7.63	-5.89
46.21052631579027	10.67	1.85	-5.38	-9.03
46.26315789473764	9.58	2.20	-5.23	-7.73
46.31578947368501	10.44	0.17	-7.01	-7.74
46.36842105263238	10.79	-0.25	-8.81	-6.22
46.42105263157975	10.35	1.29	-8.29	-6.07
46.47368421052712	9.72	1.95	-5.92	-7.45
46.52631578947449	10.70	0.24	-6.96	-8.12
46.57894736842186	10.83	-0.11	-8.03	-7.27
46.63157894736923	10.47	2.75	-6.91	-7.37
46.6842105263166	11.34	1.10	-6.68	-9.10
46.73684210526397	9.94	0.30	-7.67	-6.32
46.78947368421134	9.69	0.50	-8.83	-3.95
46.84210526315871	11.27	-0.16	-9.66	-5.81
46.89473684210608	13.92	1.39	-8.56	-10.89
46.94736842105345	8.54	0.16	-8.39	-1.58
47.00000000000082	9.98	-0.95	-7.25	-6.80
47.05263157894819	9.55	0.13	-7.41	-6.02
47.10526315789556	11.43	2.72	-7.97	-7.72
47.15789473684293	10.69	0.72	-7.82	-7.24
47.2105263157903	11.71	-0.28	-8.84	-7.67
47.26315789473767	9.72	1.97	-7.87	-5.36
47.31578947368504	10.57	0.01	-9.06	-5.44
47.36842105263241	9.36	0.95	-7.26	-5.84
47.42105263157978	8.82	0.76	-5.56	-6.80
47.473684210527146	9.37	-1.46	-7.03	-6.03
47.526315789474516	8.81	-0.59	-7.30	-4.90
47.578947368421886	10.34	0.26	-7.37	-7.25
47.631578947369256	8.45	2.36	-4.18	-6.95
47.684210526316626	9.76	0.36	-4.91	-8.42
47.736842105263996	8.93	1.21	-6.54	-5.96
47.789473684211366	9.69	1.72	-6.54	-6.94
47.842105263158736	11.63	-0.39	-8.79	-7.61
47.894736842106106	13.11	-0.95	-9.90	-8.54
47.947368421053476	10.93	2.14	-8.20	-6.90
48.000000000000846	9.09	0.39	-8.03	-4.24
48.052631578948215	11.32	-0.72	-8.10	-7.88
48.105263157895585	9.47	1.71	-6.89	-6.26
48.157894736842955	9.48	0.65	-7.30	-6.02
48.210526315790325	11.57	1.16	-6.43	-9.55
