Time	a	ax	ay	az
t in s	a/m/s²	ax/m/s²	ay/m/s²	az/m/s²

0.0	9.92	-1.05	-7.60	-6.29
0.05263157894736842	9.92	-1.05	-7.60	-6.29
0.10526315789473684	10.51	-1.16	-7.73	-7.02
0.15789473684210525	10.11	-0.84	-7.42	-6.81
0.21052631578947367	10.14	-1.01	-7.64	-6.60
0.2631578947368421	10.02	-0.95	-7.61	-6.45
0.3157894736842105	9.92	-0.99	-7.73	-6.13
0.3684210526315789	9.80	-0.87	-7.67	-6.04
0.42105263157894735	10.01	-0.92	-7.86	-6.14
0.47368421052631576	9.97	-0.97	-7.69	-6.27
0.5263157894736842	10.17	-1.14	-7.70	-6.54
0.5789473684210527	10.11	-1.03	-7.82	-6.34
0.631578947368421	10.20	-0.63	-7.63	-6.74
0.6842105263157894	10.04	-1.09	-7.78	-6.26
0.7368421052631577	10.04	-0.94	-8.12	-5.83
0.7894736842105261	10.33	-0.63	-8.13	-6.35
0.8421052631578945	10.06	-0.84	-7.73	-6.39
0.8947368421052628	10.01	-0.91	-7.73	-6.29
0.9473684210526312	9.92	-0.85	-7.90	-5.94
0.9999999999999996	9.90	-0.51	-7.73	-6.18
1.052631578947368	10.08	-0.80	-7.80	-6.34
1.1052631578947363	10.02	-0.62	-7.54	-6.58
1.1578947368421046	9.95	-0.19	-7.26	-6.80
1.210526315789473	10.02	-0.69	-7.43	-6.68
1.2631578947368414	9.97	-0.95	-7.64	-6.33
1.3157894736842097	10.13	-0.20	-7.80	-6.46
1.368421052631578	9.96	-0.79	-7.83	-6.11
1.4210526315789465	10.27	-0.92	-8.08	-6.28
1.4736842105263148	9.92	-0.69	-7.96	-5.88
1.5263157894736832	9.91	-0.86	-7.92	-5.90
1.5789473684210515	10.11	-0.63	-8.14	-5.96
1.63157894736842	10.11	-0.48	-7.84	-6.37
1.6842105263157883	10.30	-0.70	-8.23	-6.15
1.7368421052631566	10.09	-0.35	-7.60	-6.63
1.789473684210525	9.97	-0.26	-7.86	-6.13
1.8421052631578934	9.65	-0.25	-7.05	-6.58
1.8947368421052617	9.93	-0.68	-7.79	-6.13
1.94736842105263	10.34	-0.26	-7.70	-6.89
1.9999999999999984	9.82	-0.29	-7.83	-5.91
2.052631578947367	10.36	-0.08	-8.13	-6.42
2.1052631578947354	10.08	0.07	-7.31	-6.95
2.157894736842104	9.59	0.09	-7.44	-6.06
2.2105263157894726	10.42	-0.01	-7.47	-7.27
2.263157894736841	10.19	0.28	-7.40	-7.00
2.3157894736842097	10.11	0.35	-7.40	-6.88
2.3684210526315783	10.29	0.14	-7.25	-7.30
2.421052631578947	9.76	0.20	-7.06	-6.73
2.4736842105263155	9.84	0.10	-7.07	-6.84
2.526315789473684	10.24	-0.01	-7.11	-7.37
2.5789473684210527	9.84	0.18	-6.80	-7.11
2.6315789473684212	10.02	0.04	-6.90	-7.27
2.68421052631579	9.75	0.33	-6.28	-7.45
2.7368421052631584	9.49	0.34	-6.63	-6.78
2.789473684210527	9.88	0.24	-6.71	-7.24
2.8421052631578956	10.40	-0.03	-7.29	-7.41
2.894736842105264	10.25	0.22	-6.89	-7.59
2.9473684210526327	9.67	0.08	-6.66	-7.00
3.0000000000000013	10.13	-0.09	-6.91	-7.42
3.05263157894737	10.32	-0.34	-6.99	-7.59
3.1052631578947385	10.39	-0.42	-7.09	-7.59
3.157894736842107	10.45	0.05	-7.17	-7.60
3.2105263157894757	9.37	-0.14	-6.97	-6.26
3.2631578947368443	9.96	0.05	-6.20	-7.79
3.315789473684213	9.86	-0.27	-6.53	-7.38
3.3684210526315814	10.38	-0.28	-6.68	-7.94
3.42105263157895	10.20	-0.14	-6.93	-7.49
3.4736842105263186	10.10	-0.49	-7.43	-6.83
3.526315789473687	9.81	-0.48	-7.11	-6.75
3.5789473684210558	9.74	-0.04	-6.72	-7.04
3.6315789473684243	9.65	0.06	-6.47	-7.16
3.684210526315793	9.72	0.00	-6.90	-6.85
3.7368421052631615	10.50	-0.11	-6.99	-7.83
3.78947368421053	10.42	-0.08	-7.27	-7.46
3.8421052631578987	10.11	-0.12	-7.44	-6.85
3.8947368421052673	8.73	0.08	-6.15	-6.20
3.947368421052636	9.37	-0.56	-6.55	-6.67
4.000000000000004	10.07	-0.68	-7.25	-6.95
4.052631578947373	9.94	-0.26	-7.14	-6.91
4.105263157894741	9.57	-0.08	-7.07	-6.45
4.157894736842109	10.38	-0.40	-7.77	-6.87
4.210526315789477	10.10	-0.29	-7.84	-6.36
4.263157894736845	10.09	-0.39	-7.85	-6.33
4.315789473684213	9.66	0.03	-7.41	-6.20
4.368421052631581	10.28	-0.46	-7.07	-7.45
4.42105263157895	9.92	-0.40	-6.61	-7.38
4.473684210526318	9.59	-0.69	-6.92	-6.61
4.526315789473686	9.69	0.03	-6.41	-7.26
4.578947368421054	9.68	-0.04	-6.41	-7.24
4.631578947368422	10.38	-0.40	-7.26	-7.41
4.68421052631579	10.23	-0.44	-7.59	-6.85
4.736842105263158	10.84	-0.54	-7.68	-7.63
4.7894736842105265	10.29	-0.19	-6.95	-7.59
4.842105263157895	9.44	-0.39	-6.77	-6.58
4.894736842105263	9.05	-0.18	-6.03	-6.75
4.947368421052631	9.98	-0.41	-6.78	-7.32
4.999999999999999	10.16	-0.38	-7.51	-6.83
5.052631578947367	9.84	-0.37	-7.80	-5.98
5.105263157894735	10.30	-0.34	-8.02	-6.45
5.1578947368421035	10.53	-0.66	-8.21	-6.57
5.210526315789472	11.38	-0.95	-7.89	-8.15
5.26315789473684	9.83	-0.20	-7.11	-6.79
5.315789473684208	9.43	-0.48	-7.34	-5.90
5.368421052631576	9.97	-0.63	-7.44	-6.60
5.421052631578944	10.10	-0.69	-7.51	-6.72
5.473684210526312	10.46	-0.97	-7.68	-7.04
5.5263157894736805	10.84	-0.53	-7.52	-7.79
5.578947368421049	10.33	-0.74	-8.00	-6.49
5.631578947368417	8.79	-0.03	-7.43	-4.70
5.684210526315785	10.17	-0.37	-7.17	-7.20
5.736842105263153	10.22	-0.59	-6.83	-7.58
5.789473684210521	10.10	-0.59	-6.97	-7.29
5.842105263157889	10.41	0.19	-7.13	-7.58
5.8947368421052575	11.37	-0.31	-7.75	-8.31
5.947368421052626	9.96	-0.49	-7.80	-6.17
5.999999999999994	10.20	-0.05	-7.31	-7.12
6.052631578947362	9.25	-0.49	-6.86	-6.19
6.10526315789473	10.22	-0.45	-6.38	-7.98
6.157894736842098	10.67	-0.52	-6.86	-8.16
6.210526315789466	10.14	-0.17	-7.80	-6.47
6.2631578947368345	8.95	0.10	-6.69	-5.95
6.315789473684203	8.95	-0.45	-7.11	-5.41
6.368421052631571	8.75	-0.58	-6.87	-5.39
6.421052631578939	10.63	-0.69	-7.02	-7.95
6.473684210526307	10.86	0.10	-7.22	-8.12
6.526315789473675	9.17	0.02	-6.68	-6.28
6.578947368421043	9.55	-0.40	-6.79	-6.70
6.6315789473684115	9.62	-0.42	-6.64	-6.94
6.68421052631578	9.89	-0.23	-6.66	-7.30
6.736842105263148	9.96	0.16	-6.62	-7.43
6.789473684210516	10.21	0.02	-6.66	-7.74
6.842105263157884	10.58	-0.48	-6.44	-8.38
6.894736842105252	10.41	-0.21	-6.51	-8.13
6.94736842105262	10.40	0.28	-6.39	-8.20
6.9999999999999885	9.82	0.12	-6.68	-7.19
7.052631578947357	9.75	0.00	-7.17	-6.61
7.105263157894725	10.71	-0.08	-6.73	-8.33
7.157894736842093	10.66	0.13	-6.60	-8.37
7.210526315789461	10.13	0.51	-6.21	-7.99
7.263157894736829	10.00	0.11	-6.14	-7.89
7.315789473684197	10.35	0.03	-6.50	-8.06
7.368421052631565	10.10	0.03	-6.42	-7.80
7.421052631578934	10.71	0.12	-6.62	-8.42
7.473684210526302	9.70	0.63	-6.73	-6.95
7.52631578947367	9.56	0.16	-6.71	-6.81
7.578947368421038	10.28	-0.53	-7.08	-7.44
7.631578947368406	10.63	-0.35	-7.31	-7.71
7.684210526315774	10.91	-0.66	-6.92	-8.41
7.736842105263142	9.31	-0.37	-6.10	-7.03
7.789473684210511	8.92	-0.23	-6.14	-6.46
7.842105263157879	10.28	-0.65	-7.02	-7.47
7.894736842105247	9.52	0.07	-7.18	-6.25
7.947368421052615	10.93	-0.06	-7.85	-7.61
7.999999999999983	11.07	0.09	-8.02	-7.63
8.052631578947352	8.83	-0.04	-6.75	-5.69
8.10526315789472	8.76	-0.60	-6.48	-5.86
8.157894736842088	9.78	-0.51	-6.93	-6.88
8.210526315789457	10.35	-0.19	-6.81	-7.80
8.263157894736825	10.59	0.06	-5.82	-8.84
8.315789473684193	10.06	-0.52	-5.59	-8.35
8.368421052631561	11.10	-0.98	-6.70	-8.80
8.42105263157893	10.18	-0.06	-6.94	-7.45
8.473684210526297	9.58	-0.16	-6.63	-6.92
8.526315789473665	9.14	-0.55	-6.66	-6.23
8.578947368421034	9.17	-0.18	-6.29	-6.67
8.631578947368402	8.63	-0.02	-5.69	-6.48
8.68421052631577	10.06	-0.67	-6.93	-7.26
8.736842105263138	10.93	-0.39	-7.70	-7.75
8.789473684210506	10.21	-0.05	-7.51	-6.92
8.842105263157874	10.06	0.03	-7.19	-7.03
8.894736842105242	9.47	-0.04	-6.08	-7.26
8.94736842105261	9.55	-0.40	-5.92	-7.49
8.999999999999979	9.83	-0.02	-6.39	-7.48
9.052631578947347	10.59	0.02	-6.73	-8.18
9.105263157894715	10.54	-0.14	-7.47	-7.44
9.157894736842083	10.50	-0.00	-7.10	-7.73
9.210526315789451	9.95	0.19	-6.30	-7.70
9.26315789473682	9.82	-0.41	-6.93	-6.95
9.315789473684188	9.42	-0.22	-7.03	-6.27
9.368421052631556	9.78	-0.53	-7.59	-6.15
9.421052631578924	10.68	-0.20	-8.28	-6.74
9.473684210526292	10.15	0.03	-7.62	-6.71
9.52631578947366	10.24	-0.31	-7.57	-6.89
9.578947368421028	10.10	-0.19	-6.95	-7.33
9.631578947368396	10.28	-0.19	-7.08	-7.45
9.684210526315765	9.48	0.31	-6.36	-7.02
9.736842105263133	10.17	-0.20	-7.31	-7.07
9.7894736842105	10.59	-0.11	-7.38	-7.59
9.842105263157869	10.15	0.13	-7.69	-6.63
9.894736842105237	9.69	0.15	-7.09	-6.60
9.947368421052605	9.37	0.19	-6.47	-6.78
9.999999999999973	10.92	-0.82	-6.99	-8.35
10.052631578947341	10.08	-0.16	-6.92	-7.33
10.10526315789471	10.33	0.17	-6.96	-7.64
10.157894736842078	9.86	0.31	-6.04	-7.78
10.210526315789446	9.88	-0.06	-5.98	-7.87
10.263157894736814	9.13	-0.34	-5.50	-7.28
10.315789473684182	9.04	-0.27	-6.01	-6.75
10.36842105263155	9.53	0.09	-6.11	-7.31
10.421052631578918	9.58	-0.46	-6.51	-7.01
10.473684210526287	10.77	-0.77	-7.46	-7.73
10.526315789473655	10.44	-0.34	-7.48	-7.28
10.578947368421023	10.87	-0.20	-7.51	-7.86
10.631578947368391	10.02	0.46	-6.49	-7.61
10.68421052631576	10.70	0.27	-6.24	-8.69
10.736842105263127	9.75	0.31	-6.26	-7.48
10.789473684210495	10.39	0.20	-6.10	-8.41
10.842105263157864	9.50	-0.83	-7.37	-5.93
10.894736842105232	9.40	-0.20	-6.07	-7.17
10.9473684210526	9.83	-0.52	-6.12	-7.67
10.999999999999968	10.61	-0.87	-6.70	-8.17
11.052631578947336	10.81	-0.45	-6.84	-8.36
11.105263157894704	9.49	0.23	-6.97	-6.44
11.157894736842072	9.43	0.41	-6.39	-6.92
11.21052631578944	10.15	-1.05	-6.37	-7.83
11.263157894736809	9.91	-0.01	-6.41	-7.57
11.315789473684177	10.56	-0.55	-6.69	-8.15
11.368421052631545	10.72	-0.56	-7.08	-8.03
11.421052631578913	10.38	0.26	-6.13	-8.38
11.473684210526281	10.08	-0.70	-6.80	-7.41
11.52631578947365	8.96	0.05	-5.94	-6.71
11.578947368421018	9.23	-0.41	-6.67	-6.36
11.631578947368386	9.95	-0.29	-7.00	-7.07
11.684210526315754	10.06	-0.24	-7.10	-7.12
11.736842105263122	10.66	-0.12	-7.10	-7.95
11.78947368421049	9.76	-0.08	-6.72	-7.08
11.842105263157858	9.63	-0.30	-6.88	-6.73
11.894736842105226	9.54	-0.14	-6.40	-7.07
11.947368421052595	9.95	-0.63	-6.79	-7.25
11.999999999999963	10.44	-0.28	-7.07	-7.68
12.05263157894733	10.42	-0.24	-7.24	-7.49
12.105263157894699	9.69	-0.42	-6.73	-6.95
12.157894736842067	9.64	-0.77	-7.03	-6.56
12.210526315789435	9.75	-0.42	-6.69	-7.08
12.263157894736803	10.34	-0.47	-6.71	-7.86
12.315789473684172	10.28	-0.09	-6.34	-8.09
12.36842105263154	9.72	-0.39	-5.82	-7.78
12.421052631578908	9.43	-0.55	-5.78	-7.43
12.473684210526276	9.77	-0.74	-5.64	-7.94
12.526315789473644	10.00	-1.04	-6.00	-7.93
12.578947368421012	10.63	-0.78	-6.57	-8.32
12.63157894736838	9.75	-0.52	-5.88	-7.76
12.684210526315749	9.73	-0.73	-6.68	-7.03
12.736842105263117	9.84	-0.43	-6.29	-7.55
12.789473684210485	10.03	-0.69	-6.58	-7.53
12.842105263157853	9.51	-0.21	-6.28	-7.14
12.894736842105221	9.84	-0.46	-6.52	-7.36
12.94736842105259	9.79	-0.65	-6.62	-7.17
12.999999999999957	9.91	-0.55	-6.62	-7.36
13.052631578947326	10.29	-0.84	-7.08	-7.42
13.105263157894694	10.61	-0.71	-6.63	-8.25
13.157894736842062	10.53	-0.68	-6.22	-8.47
13.21052631578943	9.55	-0.55	-5.75	-7.61
13.263157894736798	9.49	-0.50	-5.44	-7.75
13.315789473684166	9.11	-0.68	-6.45	-6.40
13.368421052631534	10.49	-0.53	-7.52	-7.30
13.421052631578902	9.61	-0.45	-6.60	-6.97
13.47368421052627	10.80	-1.20	-8.19	-6.94
13.526315789473639	10.06	-0.02	-7.58	-6.60
13.578947368421007	11.28	-0.26	-7.56	-8.36
13.631578947368375	9.74	-0.70	-6.22	-7.46
13.684210526315743	10.33	-0.97	-6.77	-7.74
13.736842105263111	10.64	-0.21	-6.46	-8.45
13.78947368421048	8.88	-0.15	-5.39	-7.05
13.842105263157848	10.65	-1.12	-6.71	-8.18
13.894736842105216	9.50	0.11	-6.67	-6.77
13.947368421052584	10.08	-0.53	-6.30	-7.85
13.999999999999952	9.58	-0.53	-6.81	-6.71
14.05263157894732	10.85	-0.65	-7.49	-7.83
14.105263157894688	9.17	-0.59	-6.58	-6.36
14.157894736842056	8.94	-0.82	-6.65	-5.92
14.210526315789425	9.59	-1.17	-7.19	-6.24
14.263157894736793	10.95	-0.88	-8.01	-7.41
14.31578947368416	9.39	-0.28	-6.60	-6.67
14.368421052631529	11.37	-1.40	-9.05	-6.75
14.421052631578897	9.72	-0.35	-7.41	-6.28
14.473684210526265	11.10	-1.57	-8.51	-6.96
14.526315789473633	9.19	-1.03	-7.78	-4.77
14.578947368421002	9.83	-0.37	-6.65	-7.24
14.63157894736837	9.95	-1.13	-7.41	-6.54
14.684210526315738	10.63	-0.37	-8.13	-6.84
14.736842105263106	10.00	-0.21	-8.27	-5.62
14.789473684210474	10.02	-0.53	-8.00	-6.01
14.842105263157842	10.23	-0.53	-8.08	-6.26
14.89473684210521	10.81	-0.53	-8.23	-6.99
14.947368421052579	10.14	-0.72	-7.13	-7.17
14.999999999999947	10.24	-0.71	-6.92	-7.52
15.052631578947315	10.36	-0.07	-6.85	-7.78
15.105263157894683	10.15	-0.09	-6.83	-7.51
15.157894736842051	9.94	-0.59	-8.01	-5.85
15.21052631578942	9.08	-0.28	-7.57	-5.00
15.263157894736787	10.18	-0.50	-7.88	-6.43
15.315789473684156	10.14	-0.41	-7.84	-6.42
15.368421052631524	10.80	-0.69	-8.35	-6.82
15.421052631578892	10.76	-0.71	-8.04	-7.11
15.47368421052626	11.22	-0.80	-8.43	-7.36
15.526315789473628	8.84	0.25	-6.32	-6.17
15.578947368420996	9.97	-1.21	-7.85	-6.03
15.631578947368364	10.45	-0.69	-7.63	-7.11
15.684210526315733	10.50	-0.15	-8.41	-6.29
15.7368421052631	11.52	0.26	-8.83	-7.39
15.789473684210469	10.24	-0.12	-8.40	-5.86
15.842105263157837	9.40	-0.73	-7.43	-5.71
15.894736842105205	9.13	-0.33	-7.37	-5.38
15.947368421052573	10.30	-0.64	-7.92	-6.56
15.999999999999941	9.69	-0.66	-7.49	-6.10
16.05263157894731	10.35	-1.18	-8.11	-6.33
16.10526315789468	10.06	-0.78	-7.42	-6.76
16.15789473684205	10.37	-1.26	-8.09	-6.37
16.21052631578942	9.58	-1.05	-7.62	-5.70
16.26315789473679	10.18	-1.54	-8.04	-6.06
16.31578947368416	10.25	-1.48	-8.23	-5.93
16.36842105263153	10.61	-1.18	-7.58	-7.32
16.4210526315789	9.82	-1.35	-7.37	-6.35
16.47368421052627	9.98	-1.26	-7.54	-6.41
16.52631578947364	10.63	-1.40	-7.70	-7.19
16.57894736842101	9.59	-1.01	-7.35	-6.07
16.63157894736838	10.05	-1.49	-7.49	-6.53
16.68421052631575	9.36	-1.30	-7.54	-5.40
16.73684210526312	9.76	-1.57	-7.61	-5.91
16.78947368421049	10.16	-1.53	-7.75	-6.39
16.84210526315786	11.14	-1.84	-7.95	-7.59
16.894736842105228	8.93	-1.21	-6.98	-5.44
16.947368421052598	10.78	-2.08	-7.37	-7.59
16.999999999999968	9.83	-1.76	-7.09	-6.57
17.052631578947338	9.80	-1.34	-7.02	-6.70
17.105263157894708	9.87	-2.16	-7.13	-6.47
17.157894736842078	10.19	-2.19	-7.14	-6.93
17.210526315789448	10.41	-1.82	-6.92	-7.56
17.263157894736818	10.41	-1.63	-6.68	-7.82
17.315789473684188	9.35	-1.90	-6.31	-6.63
17.368421052631557	9.99	-2.25	-6.25	-7.46
17.421052631578927	9.90	-2.19	-6.52	-7.12
17.473684210526297	9.83	-2.01	-6.43	-7.16
17.526315789473667	9.47	-2.12	-6.44	-6.61
17.578947368421037	10.23	-2.24	-6.53	-7.55
17.631578947368407	9.87	-2.25	-7.02	-6.56
17.684210526315777	11.28	-2.26	-7.32	-8.27
17.736842105263147	9.93	-1.68	-6.70	-7.13
17.789473684210517	9.71	-1.55	-6.61	-6.94
17.842105263157887	9.10	-1.08	-5.62	-7.07
17.894736842105257	10.78	-2.32	-7.19	-7.69
17.947368421052627	9.93	-2.02	-6.71	-7.03
17.999999999999996	9.94	-1.60	-6.69	-7.17
18.052631578947366	10.25	-1.43	-6.20	-8.04
18.105263157894736	9.65	-2.03	-6.35	-6.98
18.157894736842106	9.59	-1.65	-6.48	-6.88
18.210526315789476	10.61	-1.59	-7.17	-7.66
18.263157894736846	9.25	-0.77	-6.68	-6.35
18.315789473684216	10.40	-2.11	-6.88	-7.51
18.368421052631586	8.89	-2.68	-6.20	-5.78
18.421052631578956	10.40	-2.18	-8.93	-4.86
18.473684210526326	11.88	-1.15	-8.05	-8.66
18.526315789473696	10.31	-0.09	-7.57	-7.00
18.578947368421066	8.28	-1.87	-5.27	-6.10
18.631578947368435	10.69	-2.86	-7.09	-7.48
18.684210526315805	8.03	-0.19	-6.77	-4.31
18.736842105263175	10.52	0.51	-7.72	-7.12
18.789473684210545	12.22	-3.27	-9.84	-6.47
18.842105263157915	10.94	-1.42	-8.19	-7.11
18.894736842105285	9.96	0.09	-7.45	-6.62
18.947368421052655	10.49	-1.80	-6.86	-7.72
19.000000000000025	7.82	-1.53	-6.29	-4.39
19.052631578947395	9.79	-2.11	-6.06	-7.39
19.105263157894765	9.33	-1.78	-6.33	-6.62
19.157894736842135	8.84	-1.48	-6.16	-6.17
19.210526315789505	8.30	-1.38	-6.70	-4.70
19.263157894736874	13.86	-1.99	-8.38	-10.86
19.315789473684244	11.29	-1.72	-8.95	-6.67
19.368421052631614	9.46	-2.61	-7.22	-5.53
19.421052631578984	14.09	-2.58	-8.57	-10.88
19.473684210526354	10.98	-1.45	-8.13	-7.23
19.526315789473724	9.08	-2.26	-7.35	-4.85
19.578947368421094	8.41	1.61	-3.89	-7.28
19.631578947368464	12.20	2.19	-4.93	-10.94
19.684210526315834	9.84	-0.20	-5.87	-7.89
19.736842105263204	11.68	-2.78	-9.77	-5.77
19.789473684210574	8.74	0.21	-7.19	-4.96
19.842105263157944	8.49	2.37	-3.53	-7.35
19.894736842105313	8.50	0.80	-4.58	-7.11
19.947368421052683	10.36	-0.80	-7.94	-6.61
20.000000000000053	13.53	-3.62	-10.83	-7.26
20.052631578947423	11.37	0.14	-5.17	-10.12
20.105263157894793	9.53	-0.40	-5.09	-8.05
20.157894736842163	8.86	-2.03	-6.76	-5.36
20.210526315789533	9.02	-2.58	-6.29	-5.92
20.263157894736903	8.05	-0.74	-6.13	-5.17
20.315789473684273	9.34	-0.65	-7.21	-5.91
20.368421052631643	12.84	-0.67	-8.48	-9.62
20.421052631579013	14.56	-2.90	-10.29	-9.88
20.473684210526383	13.22	-2.38	-10.85	-7.17
20.526315789473752	10.66	-1.26	-7.53	-7.43
20.578947368421122	8.47	-0.48	-6.35	-5.59
20.631578947368492	7.52	-0.49	-5.06	-5.55
20.684210526315862	6.91	-2.00	-5.59	-3.54
20.736842105263232	10.12	-0.92	-5.67	-8.32
20.789473684210602	10.62	-1.78	-8.04	-6.70
20.842105263157972	9.74	-1.48	-8.32	-4.85
20.894736842105342	10.83	-2.37	-9.51	-4.59
20.947368421052712	10.51	-1.25	-8.48	-6.09
21.00000000000008	9.49	0.61	-6.06	-7.28
21.05263157894745	7.55	-0.81	-6.03	-4.46
21.10526315789482	7.11	-2.04	-6.00	-3.22
21.15789473684219	7.23	-1.17	-3.92	-5.95
21.21052631578956	12.17	-3.20	-7.92	-8.67
21.26315789473693	7.54	-1.87	-6.19	-3.88
21.3157894736843	10.50	-1.15	-7.66	-7.09
21.36842105263167	9.78	-1.18	-7.14	-6.59
21.42105263157904	10.66	-3.06	-7.89	-6.49
21.47368421052641	12.38	-3.41	-8.56	-8.26
21.52631578947378	8.47	-1.46	-6.42	-5.32
21.57894736842115	9.86	-1.53	-5.27	-8.19
21.63157894736852	10.24	-2.99	-7.82	-5.89
21.68421052631589	8.80	-1.94	-7.31	-4.51
21.73684210526326	9.11	-1.76	-6.09	-6.55
21.78947368421063	10.67	-3.16	-8.26	-5.98
21.842105263158	10.92	-2.72	-7.69	-7.26
21.89473684210537	8.99	-2.52	-6.88	-5.21
21.94736842105274	9.44	-2.37	-6.57	-6.36
22.00000000000011	11.65	-2.87	-7.44	-8.49
22.05263157894748	11.10	-2.59	-8.46	-6.71
22.10526315789485	11.60	-2.64	-8.88	-6.97
22.15789473684222	10.57	-2.29	-8.70	-5.54
22.21052631578959	11.55	-2.28	-7.95	-8.06
22.26315789473696	8.37	-1.89	-6.19	-5.31
22.31578947368433	9.89	-2.24	-6.13	-7.44
22.3684210526317	6.65	-1.07	-5.58	-3.46
22.42105263157907	8.26	-1.89	-6.37	-4.90
22.47368421052644	11.69	-2.73	-8.20	-7.87
22.52631578947381	12.70	-2.57	-10.10	-7.25
22.57894736842118	11.03	-2.91	-8.92	-5.80
22.63157894736855	10.91	-1.94	-8.79	-6.16
22.68421052631592	9.96	-2.40	-8.00	-5.43
22.73684210526329	8.93	-2.11	-6.83	-5.35
22.78947368421066	9.88	-3.07	-6.54	-6.74
22.84210526315803	10.12	-2.63	-7.09	-6.72
22.8947368421054	10.21	-2.77	-7.42	-6.44
22.94736842105277	10.20	-2.60	-7.16	-6.80
23.00000000000014	9.86	-2.54	-7.05	-6.40
23.05263157894751	10.72	-2.78	-7.04	-7.59
23.10526315789488	9.77	-2.09	-6.73	-6.76
23.15789473684225	10.95	-3.01	-8.47	-6.26
23.210526315789618	8.79	-1.63	-7.40	-4.45
23.263157894736988	11.89	-3.04	-7.93	-8.32
23.315789473684358	11.88	-2.43	-7.88	-8.55
23.368421052631728	8.63	-1.14	-6.82	-5.17
23.421052631579098	6.96	-1.31	-5.66	-3.83
23.473684210526468	11.29	-3.66	-8.27	-6.76
23.526315789473838	9.29	-2.30	-7.67	-4.70
23.578947368421208	14.13	-3.33	-9.81	-9.61
23.631578947368578	8.36	-2.29	-7.14	-3.71
23.684210526315947	14.29	-3.99	-9.37	-10.03
23.736842105263317	6.55	-1.20	-5.71	-2.97
23.789473684210687	8.79	-3.32	-5.87	-5.64
23.842105263158057	9.39	-3.00	-6.18	-6.40
23.894736842105427	12.73	-2.97	-10.22	-6.98
23.947368421052797	8.69	-1.43	-7.67	-3.83
24.000000000000167	12.95	-5.66	-9.54	-6.68
24.052631578947537	7.96	-2.06	-6.83	-3.53
24.105263157894907	12.96	-2.80	-8.16	-9.67
24.157894736842277	10.28	-1.46	-8.61	-5.43
24.210526315789647	11.52	-2.17	-9.17	-6.61
24.263157894737017	9.82	-1.98	-8.07	-5.23
24.315789473684386	10.16	-1.32	-7.39	-6.85
24.368421052631756	8.31	-1.26	-7.20	-3.96
24.421052631579126	11.10	-1.41	-6.98	-8.52
24.473684210526496	8.92	-0.46	-7.53	-4.77
24.526315789473866	10.45	-1.31	-8.29	-6.22
24.578947368421236	11.20	-0.68	-8.59	-7.15
24.631578947368606	11.56	-0.93	-9.07	-7.11
24.684210526315976	10.90	-2.05	-8.62	-6.34
24.736842105263346	9.17	-1.11	-7.72	-4.83
24.789473684210716	11.24	-1.68	-8.39	-7.30
24.842105263158086	9.06	-1.42	-7.46	-4.94
24.894736842105456	9.98	-1.41	-7.31	-6.65
24.947368421052825	8.91	-0.95	-6.84	-5.64
25.000000000000195	9.04	-0.64	-6.40	-6.35
25.052631578947565	11.72	-1.86	-7.83	-8.53
25.105263157894935	9.66	-1.76	-6.88	-6.54
25.157894736842305	10.15	-1.87	-7.27	-6.83
25.210526315789675	10.48	-0.74	-7.17	-7.61
25.263157894737045	9.37	-0.47	-7.33	-5.82
25.315789473684415	10.24	-1.13	-8.22	-6.00
25.368421052631785	8.71	-0.37	-6.25	-6.06
25.421052631579155	9.13	-1.67	-7.02	-5.60
25.473684210526525	9.46	-1.27	-6.80	-6.45
25.526315789473895	9.13	-1.37	-7.77	-4.60
25.578947368421264	12.00	-2.19	-7.81	-8.84
25.631578947368634	10.96	-0.26	-7.77	-7.73
25.684210526316004	12.10	-1.61	-9.36	-7.49
25.736842105263374	7.83	-0.57	-5.86	-5.16
25.789473684210744	10.09	-1.04	-7.63	-6.52
25.842105263158114	10.42	-0.67	-6.50	-8.11
25.894736842105484	10.26	-1.13	-6.11	-8.16
25.947368421052854	9.40	-0.11	-6.52	-6.77
26.000000000000224	8.73	0.01	-7.50	-4.46
26.052631578947594	10.35	-0.05	-6.88	-7.73
26.105263157894964	9.47	0.06	-7.38	-5.93
26.157894736842334	12.58	-0.17	-8.17	-9.56
26.210526315789703	10.19	0.25	-7.49	-6.90
26.263157894737073	9.05	0.15	-6.22	-6.56
26.315789473684443	8.29	0.20	-5.11	-6.53
26.368421052631813	10.50	-0.35	-7.44	-7.40
26.421052631579183	9.20	0.90	-5.94	-6.96
26.473684210526553	12.06	-0.83	-8.81	-8.18
26.526315789473923	10.70	-0.41	-8.39	-6.63
26.578947368421293	7.24	0.32	-5.93	-4.15
26.631578947368663	12.60	-1.72	-8.18	-9.43
26.684210526316033	8.06	0.29	-6.51	-4.74
26.736842105263403	9.71	-0.80	-5.83	-7.73
26.789473684210773	11.11	-1.19	-7.13	-8.44
26.842105263158142	10.41	-0.96	-9.09	-4.98
26.894736842105512	10.68	-0.48	-6.54	-8.43
26.947368421052882	11.98	-2.50	-8.31	-8.26
27.000000000000252	10.82	-0.69	-7.78	-7.49
27.052631578947622	7.00	0.33	-5.53	-4.27
27.105263157894992	11.83	-2.29	-6.91	-9.33
27.157894736842362	6.93	-0.41	-5.73	-3.88
27.210526315789732	12.08	-2.34	-8.87	-7.87
27.263157894737102	7.31	-0.37	-6.34	-3.61
27.31578947368447	13.35	-2.22	-10.58	-7.84
27.36842105263184	15.43	-1.00	-8.29	-12.97
27.42105263157921	8.60	-0.54	-7.87	-3.43
27.47368421052658	14.82	-2.92	-10.21	-10.33
27.52631578947395	6.91	0.00	-6.56	-2.16
27.57894736842132	11.57	-1.12	-8.22	-8.07
27.63157894736869	7.99	0.51	-5.70	-5.57
27.68421052631606	9.10	-0.57	-7.77	-4.69
27.73684210526343	9.70	-0.46	-6.76	-6.94
27.7894736842108	10.06	-0.45	-7.24	-6.97
27.84210526315817	8.62	1.11	-6.29	-5.79
27.89473684210554	10.27	-0.97	-7.49	-6.96
27.94736842105291	13.69	-1.11	-9.86	-9.43
28.00000000000028	5.67	0.06	-5.62	-0.78
28.05263157894765	18.01	0.25	-7.51	-16.37
28.10526315789502	10.75	-0.18	-9.93	-4.10
28.15789473684239	10.11	-0.14	-6.76	-7.52
28.21052631578976	10.14	-0.70	-8.18	-5.96
28.26315789473713	10.32	-0.34	-7.04	-7.53
28.3157894736845	8.92	-0.91	-7.38	-4.92
28.36842105263187	8.24	0.12	-6.06	-5.58
28.42105263157924	10.45	-1.02	-7.53	-7.18
28.47368421052661	10.91	-0.84	-8.72	-6.51
28.52631578947398	10.79	-0.40	-7.55	-7.70
28.57894736842135	9.82	-0.00	-8.16	-5.47
28.63157894736872	10.03	-0.31	-7.82	-6.27
28.68421052631609	10.79	-0.71	-8.16	-7.03
28.73684210526346	9.42	-0.60	-6.07	-7.18
28.78947368421083	9.69	-0.66	-6.96	-6.71
28.8421052631582	9.23	-0.24	-7.00	-6.02
28.89473684210557	10.82	-0.63	-7.25	-8.01
28.94736842105294	10.54	-1.10	-8.40	-6.26
29.00000000000031	11.43	-1.63	-8.17	-7.83
29.05263157894768	11.12	-0.97	-7.50	-8.15
29.10526315789505	9.80	-1.35	-7.81	-5.77
29.15789473684242	10.99	-0.49	-7.27	-8.23
29.21052631578979	8.63	0.39	-7.17	-4.79
29.26315789473716	9.27	-0.56	-7.71	-5.12
29.31578947368453	9.92	-0.90	-7.06	-6.91
29.3684210526319	7.90	-0.57	-6.49	-4.47
29.42105263157927	10.80	-1.25	-7.27	-7.89
29.47368421052664	10.44	-0.77	-7.84	-6.86
29.52631578947401	10.16	-0.51	-7.65	-6.67
29.578947368421378	11.28	-1.31	-8.80	-6.94
29.631578947368748	10.41	-0.29	-7.37	-7.34
29.684210526316118	9.07	-0.90	-7.75	-4.62
29.736842105263488	12.14	-1.41	-6.97	-9.84
29.789473684210858	11.04	-1.02	-7.09	-8.40
29.842105263158228	9.30	-0.51	-6.43	-6.70
29.894736842105598	10.25	-0.52	-7.71	-6.73
29.947368421052968	7.64	-0.47	-5.86	-4.88
30.000000000000338	10.60	-1.97	-9.11	-5.04
30.052631578947707	10.56	-0.40	-7.85	-7.05
30.105263157895077	11.71	-2.15	-8.39	-7.88
30.157894736842447	8.30	-0.94	-8.24	-0.37
30.210526315789817	7.41	-0.86	-6.69	-3.08
30.263157894737187	9.67	1.17	-5.27	-8.03
30.315789473684557	9.12	-1.49	-7.20	-5.40
30.368421052631927	7.25	-0.52	-5.86	-4.23
30.421052631579297	9.66	0.39	-5.53	-7.91
30.473684210526667	11.33	0.56	-8.66	-7.29
30.526315789474037	9.64	0.96	-7.25	-6.27
30.578947368421407	11.69	-0.95	-8.98	-7.42
30.631578947368777	9.52	0.54	-7.30	-6.09
30.684210526316146	9.71	0.16	-6.00	-7.63
30.736842105263516	8.92	-0.49	-6.18	-6.41
30.789473684210886	9.02	-1.33	-7.57	-4.72
30.842105263158256	12.85	-1.60	-8.17	-9.78
30.894736842105626	7.02	0.52	-5.52	-4.31
30.947368421052996	11.57	-1.89	-10.76	-3.80
31.000000000000366	11.38	-0.32	-7.49	-8.56
31.052631578947736	12.74	-0.07	-7.34	-10.41
31.105263157895106	6.66	0.26	-6.64	-0.54
31.157894736842476	17.51	-2.90	-9.81	-14.21
31.210526315789846	6.27	-0.59	-5.45	-3.06
31.263157894737216	5.94	-1.02	-4.95	-3.13
31.315789473684585	9.81	0.33	-8.08	-5.55
31.368421052631955	8.83	-0.83	-6.68	-5.71
31.421052631579325	8.88	-1.37	-6.41	-5.99
31.473684210526695	8.37	-0.69	-6.66	-5.02
31.526315789474065	8.93	-1.60	-7.12	-5.15
31.578947368421435	12.83	-2.80	-9.58	-8.05
31.631578947368805	10.09	0.49	-7.14	-7.10
31.684210526316175	8.03	-0.43	-7.57	-2.63
31.736842105263545	10.24	-1.97	-7.99	-6.09
31.789473684210915	11.01	-1.66	-7.78	-7.61
31.842105263158285	11.04	-0.22	-6.99	-8.54
31.894736842105655	9.50	0.22	-7.27	-6.11
31.947368421053024	7.50	-0.57	-6.83	-3.03
32.00000000000039	9.71	-1.99	-7.74	-5.52
32.05263157894776	8.38	-1.57	-5.91	-5.73
32.10526315789513	11.80	-2.86	-9.65	-6.17
32.1578947368425	8.64	0.37	-6.48	-5.70
32.21052631578987	10.08	-1.28	-8.89	-4.57
32.26315789473724	10.90	-2.71	-8.50	-6.27
32.31578947368461	14.52	-1.86	-6.83	-12.68
32.36842105263198	5.18	0.86	-4.11	-3.03
32.42105263157935	11.69	-2.14	-8.36	-7.89
32.47368421052672	10.40	-1.68	-8.94	-5.05
32.52631578947409	9.04	0.22	-7.32	-5.29
32.57894736842146	8.75	-0.54	-6.56	-5.76
32.63157894736883	11.45	-1.44	-8.54	-7.49
32.6842105263162	8.07	-0.11	-5.69	-5.72
32.73684210526357	8.62	-1.18	-7.33	-4.37
32.78947368421094	11.81	-1.89	-8.98	-7.43
32.84210526315831	12.16	-1.96	-8.31	-8.66
32.89473684210568	10.25	-0.76	-5.84	-8.38
32.94736842105305	9.52	-1.42	-6.69	-6.63
33.00000000000042	7.68	-0.55	-5.53	-5.31
33.05263157894779	10.24	-1.13	-5.98	-8.24
33.10526315789516	10.31	-1.73	-8.50	-5.56
33.15789473684253	10.04	-0.90	-7.72	-6.35
33.2105263157899	12.15	-1.92	-8.28	-8.69
33.26315789473727	11.76	-1.05	-8.12	-8.44
33.31578947368464	9.82	-1.08	-6.49	-7.28
33.36842105263201	10.80	-2.01	-6.74	-8.20
33.42105263157938	8.89	-0.90	-6.42	-6.08
33.47368421052675	8.33	-0.49	-5.50	-6.23
33.52631578947412	10.97	-1.32	-7.11	-8.25
33.57894736842149	13.44	-1.56	-9.24	-9.64
33.63157894736886	11.18	-1.09	-7.39	-8.31
33.68421052631623	8.77	-0.21	-6.26	-6.14
33.7368421052636	6.70	-0.31	-5.30	-4.08
33.78947368421097	12.88	-2.86	-8.27	-9.45
33.84210526315834	10.92	-1.40	-9.24	-5.65
33.89473684210571	9.14	-1.21	-6.63	-6.18
33.94736842105308	7.70	-0.91	-6.77	-3.55
34.00000000000045	12.59	-2.81	-7.66	-9.58
34.05263157894782	9.35	-0.64	-7.60	-5.40
34.10526315789519	11.64	-1.27	-7.29	-8.98
34.15789473684256	7.60	-0.19	-5.59	-5.15
34.21052631578993	7.30	-1.29	-6.04	-3.90
34.2631578947373	10.49	-1.93	-8.55	-5.76
34.31578947368467	10.19	-0.91	-7.62	-6.70
34.36842105263204	7.61	-0.76	-6.65	-3.63
34.42105263157941	9.47	-0.93	-5.54	-7.62
34.47368421052678	9.66	-2.04	-5.51	-7.67
34.52631578947415	7.62	-1.72	-5.65	-4.81
34.57894736842152	11.25	-1.35	-5.52	-9.71
34.63157894736889	10.44	-1.24	-8.92	-5.28
34.68421052631626	10.18	0.12	-6.99	-7.40
34.73684210526363	12.65	-2.24	-9.29	-8.28
34.789473684210996	10.51	-0.63	-8.00	-6.78
34.842105263158366	8.66	-1.18	-6.93	-5.06
34.894736842105736	9.29	-2.01	-6.97	-5.81
34.947368421053106	8.46	-0.93	-6.58	-5.24
35.000000000000476	11.81	-1.80	-8.38	-8.13
35.052631578947846	13.42	-1.05	-9.12	-9.79
35.105263157895216	11.17	0.11	-8.63	-7.09
35.157894736842586	10.65	-0.12	-8.36	-6.60
35.210526315789956	9.72	-0.06	-6.22	-7.47
35.263157894737326	10.04	-1.53	-6.86	-7.18
35.315789473684696	11.71	-2.06	-8.68	-7.58
35.368421052632065	9.06	0.51	-6.20	-6.59
35.421052631579435	11.02	-1.44	-8.12	-7.32
35.473684210526805	8.47	-0.43	-6.50	-5.41
35.526315789474175	10.04	-1.11	-6.93	-7.18
35.578947368421545	9.44	-0.32	-7.56	-5.64
35.631578947368915	10.99	-0.78	-8.26	-7.21
35.684210526316285	10.80	-0.54	-6.58	-8.55
35.736842105263655	8.57	-0.46	-7.24	-4.57
35.789473684211025	10.29	-0.46	-7.78	-6.73
35.842105263158395	12.00	-0.08	-7.05	-9.71
35.894736842105765	9.02	-0.55	-6.76	-5.95
35.947368421053135	8.92	-1.51	-6.61	-5.80
36.000000000000504	9.56	-1.79	-6.74	-6.54
36.052631578947874	7.92	-0.36	-5.34	-5.84
36.105263157895244	10.65	-2.46	-8.43	-6.04
36.157894736842614	10.30	-1.34	-8.23	-6.04
36.210526315789984	9.87	-0.36	-7.21	-6.74
36.263157894737354	10.04	-1.95	-7.93	-5.85
36.315789473684724	8.49	-0.01	-6.71	-5.20
36.368421052632094	11.46	-2.02	-7.70	-8.25
36.421052631579464	11.23	-1.49	-7.91	-7.84
36.473684210526834	8.42	0.13	-6.62	-5.21
36.526315789474204	10.04	-0.70	-6.73	-7.42
36.578947368421574	8.77	-1.45	-6.38	-5.83
36.63157894736894	10.77	-2.12	-7.65	-7.29
36.68421052631631	12.42	-0.81	-7.76	-9.66
36.73684210526368	10.09	-0.01	-8.45	-5.53
36.78947368421105	8.57	-0.09	-7.29	-4.52
36.84210526315842	8.25	-1.46	-6.09	-5.37
36.89473684210579	10.51	-1.61	-5.37	-8.89
36.94736842105316	11.43	-2.09	-6.24	-9.35
37.00000000000053	10.46	-0.37	-6.73	-7.99
37.0526315789479	8.59	-0.76	-7.48	-4.14
37.10526315789527	11.06	-1.71	-8.55	-6.80
37.15789473684264	12.80	-0.90	-8.53	-9.50
37.21052631579001	8.58	-0.02	-5.98	-6.15
37.26315789473738	8.28	-1.11	-6.29	-5.28
37.31578947368475	7.35	-0.76	-5.71	-4.57
37.36842105263212	9.29	-1.62	-7.10	-5.76
37.42105263157949	10.94	-1.52	-8.25	-7.02
37.47368421052686	13.75	-0.24	-8.69	-10.65
37.52631578947423	12.72	-1.26	-8.34	-9.51
37.5789473684216	7.50	0.38	-5.00	-5.59
37.63157894736897	7.61	-1.61	-6.29	-3.98
37.68421052631634	10.90	-2.02	-6.82	-8.26
37.73684210526371	11.05	-1.60	-8.78	-6.53
37.78947368421108	9.69	-0.44	-7.62	-5.97
37.84210526315845	8.18	-0.59	-6.32	-5.17
37.89473684210582	12.87	-1.04	-7.26	-10.57
37.94736842105319	9.15	-1.10	-4.74	-7.75
38.00000000000056	8.13	-1.33	-4.42	-6.70
38.05263157894793	9.89	-1.19	-6.97	-6.91
38.1052631578953	10.05	-1.58	-7.95	-5.95
38.15789473684267	10.01	-2.35	-9.04	-3.60
38.21052631579004	12.24	-2.93	-9.53	-7.10
38.26315789473741	11.20	-1.03	-8.40	-7.34
38.31578947368478	7.11	-0.44	-6.25	-3.35
38.36842105263215	14.96	-3.80	-8.13	-11.97
38.42105263157952	14.48	-0.82	-6.94	-12.68
38.47368421052689	6.36	2.08	-4.27	-4.23
38.52631578947426	6.84	-1.08	-6.04	-3.02
38.57894736842163	11.39	-3.04	-7.72	-7.80
38.631578947369	11.17	-2.08	-7.60	-7.91
38.68421052631637	10.81	-1.67	-7.27	-7.83
38.73684210526374	10.05	-1.63	-7.48	-6.51
38.78947368421111	9.33	-0.80	-7.44	-5.58
38.84210526315848	11.19	-1.63	-7.71	-7.95
38.89473684210585	13.73	-2.44	-8.45	-10.54
38.94736842105322	10.07	-0.98	-5.00	-8.69
39.00000000000059	9.93	-1.46	-5.47	-8.16
39.05263157894796	9.83	-1.12	-7.89	-5.74
39.10526315789533	9.33	-0.06	-6.99	-6.17
39.1578947368427	9.74	-2.01	-7.86	-5.38
39.21052631579007	7.90	-0.84	-7.07	-3.41
39.26315789473744	11.31	-3.14	-8.22	-7.10
39.31578947368481	8.77	-0.73	-5.01	-7.16
39.36842105263218	9.68	-0.67	-7.05	-6.59
39.42105263157955	10.66	-0.87	-8.54	-6.31
39.47368421052692	10.17	-0.21	-8.24	-5.96
39.52631578947429	11.73	-2.03	-7.83	-8.49
39.57894736842166	8.33	-0.65	-5.75	-5.99
39.63157894736903	9.58	-2.26	-6.68	-6.49
39.6842105263164	10.26	-1.03	-5.59	-8.54
39.73684210526377	8.95	-0.84	-7.12	-5.35
39.78947368421114	12.10	-1.75	-9.91	-6.72
39.84210526315851	11.46	-1.23	-8.95	-7.05
39.89473684210588	12.43	-0.69	-8.99	-8.56
39.94736842105325	11.70	-1.70	-6.99	-9.23
40.00000000000062	9.65	-1.50	-6.83	-6.65
40.05263157894799	9.03	-0.61	-5.16	-7.39
40.10526315789536	7.88	-1.25	-5.06	-5.90
40.15789473684273	7.99	-1.66	-5.78	-5.26
40.2105263157901	9.09	-2.13	-6.42	-6.07
40.26315789473747	10.50	-1.18	-6.24	-8.36
40.31578947368484	11.19	0.01	-6.46	-9.14
40.36842105263221	10.10	-1.27	-7.71	-6.39
40.42105263157958	10.16	-0.95	-8.29	-5.81
40.47368421052695	10.76	-0.83	-7.36	-7.80
40.52631578947432	8.89	-0.60	-7.41	-4.87
40.57894736842169	9.86	-0.91	-6.63	-7.23
40.63157894736906	9.11	-1.12	-5.97	-6.79
40.68421052631643	8.92	-1.39	-6.53	-5.92
40.7368421052638	11.04	-1.29	-6.69	-8.69
40.78947368421117	9.50	-0.26	-7.17	-6.24
40.84210526315854	8.97	-0.30	-6.51	-6.16
40.89473684210591	8.12	-0.43	-6.24	-5.18
40.94736842105328	12.96	-1.65	-9.30	-8.87
41.00000000000065	8.33	0.27	-6.42	-5.30
41.05263157894802	7.80	-0.67	-6.64	-4.04
41.105263157895386	7.58	-0.19	-5.72	-4.97
41.157894736842756	12.29	-2.82	-6.80	-9.84
41.210526315790126	9.28	-1.89	-4.95	-7.62
41.263157894737496	10.98	-1.44	-4.71	-9.82
41.315789473684866	9.09	-0.63	-6.50	-6.33
41.368421052632236	10.00	-0.69	-6.82	-7.28
41.421052631579606	10.36	-2.01	-8.88	-4.93
41.473684210526976	11.68	-2.47	-8.64	-7.46
41.526315789474346	12.32	-2.79	-8.85	-8.09
41.578947368421716	12.52	-2.37	-10.10	-7.01
41.631578947369086	8.37	-0.59	-7.43	-3.81
41.684210526316456	7.26	-0.67	-5.07	-5.15
41.736842105263825	8.06	-1.16	-4.11	-6.83
41.789473684211195	6.33	-0.93	-4.29	-4.56
41.842105263158565	10.13	-1.85	-5.00	-8.62
41.894736842105935	11.60	-1.68	-7.98	-8.25
41.947368421053305	11.21	-1.37	-8.19	-7.53
42.000000000000675	11.28	-1.91	-8.65	-6.98
42.052631578948045	9.69	-1.26	-7.75	-5.68
42.105263157895415	13.27	-1.23	-9.95	-8.69
42.157894736842785	11.48	-0.12	-6.59	-9.40
42.210526315790155	7.43	-0.80	-6.22	-3.97
42.263157894737525	10.25	-1.18	-5.72	-8.43
42.315789473684895	9.44	-0.94	-5.49	-7.63
42.368421052632264	11.81	-1.47	-7.07	-9.35
42.421052631579634	9.09	-0.40	-6.94	-5.86
42.473684210527004	9.89	-0.96	-7.78	-6.03
42.526315789474374	9.44	-0.36	-5.47	-7.68
42.578947368421744	8.38	-1.58	-6.77	-4.69
42.631578947369114	9.10	-1.72	-7.01	-5.54
42.684210526316484	11.21	-2.96	-9.58	-5.01
42.736842105263854	10.53	-2.24	-7.97	-6.50
42.789473684211224	8.90	-1.07	-6.33	-6.16
42.842105263158594	9.74	-0.43	-6.32	-7.39
42.894736842105964	12.42	-0.69	-4.55	-11.53
42.94736842105333	10.21	-0.80	-7.68	-6.68
43.0000000000007	8.86	-0.45	-7.62	-4.49
43.05263157894807	11.18	-2.00	-8.50	-6.98
43.10526315789544	10.54	-1.21	-8.42	-6.22
43.15789473684281	10.19	-0.70	-6.23	-8.04
43.21052631579018	8.95	-0.07	-4.93	-7.47
43.26315789473755	7.84	-0.90	-5.13	-5.86
43.31578947368492	9.36	-1.67	-6.58	-6.43
43.36842105263229	8.67	-1.38	-6.77	-5.23
43.42105263157966	8.58	-0.88	-5.84	-6.22
43.47368421052703	11.01	-2.80	-8.87	-5.88
43.5263157894744	13.77	-0.13	-7.80	-11.35
43.57894736842177	12.60	-0.60	-7.32	-10.23
43.63157894736914	8.87	-0.94	-5.88	-6.57
43.68421052631651	9.54	-1.52	-5.74	-7.46
43.73684210526388	9.11	0.19	-6.25	-6.63
43.78947368421125	8.98	-0.45	-5.41	-7.15
43.84210526315862	10.95	-2.86	-9.34	-4.96
43.89473684210599	9.90	-1.32	-6.68	-7.19
43.94736842105336	8.84	-0.50	-3.93	-7.90
44.00000000000073	8.45	-1.77	-6.39	-5.24
44.0526315789481	11.69	-1.90	-6.66	-9.41
44.10526315789547	11.09	-1.82	-7.55	-7.92
44.15789473684284	8.60	-1.57	-6.73	-5.13
44.21052631579021	11.75	-3.72	-8.46	-7.26
44.26315789473758	9.84	-0.12	-5.31	-8.29
44.31578947368495	11.86	-2.43	-7.77	-8.63
44.36842105263232	14.07	-1.95	-9.12	-10.53
44.42105263157969	6.28	0.40	-5.80	-2.37
44.47368421052706	15.06	-2.99	-7.60	-12.65
44.52631578947443	6.55	0.46	-5.65	-3.29
44.5789473684218	11.28	-1.62	-5.53	-9.70
44.63157894736917	9.87	-0.96	-7.90	-5.83
44.68421052631654	7.99	0.66	-5.15	-6.07
44.73684210526391	9.91	-0.91	-5.33	-8.31
44.78947368421128	7.92	-0.91	-6.61	-4.26
44.84210526315865	12.19	-0.74	-9.58	-7.51
44.89473684210602	7.81	-0.10	-6.38	-4.51
44.94736842105339	13.36	-2.01	-6.45	-11.53
45.00000000000076	10.03	-0.23	-7.06	-7.12
45.05263157894813	8.22	0.88	-5.28	-6.23
45.1052631578955	12.33	-2.45	-7.30	-9.62
45.15789473684287	9.36	-1.05	-7.06	-6.05
45.21052631579024	10.18	-0.41	-5.18	-8.76
45.26315789473761	10.83	-1.68	-8.20	-6.87
45.31578947368498	14.85	-0.16	-8.76	-11.98
45.36842105263235	6.22	0.19	-5.31	-3.25
45.42105263157972	9.27	-3.18	-8.67	0.79
45.47368421052709	5.36	0.70	-4.87	-2.13
45.52631578947446	6.42	0.45	-4.63	-4.42
45.57894736842183	14.58	-1.77	-3.86	-13.95
45.6315789473692	6.60	-0.47	-6.59	0.10
45.68421052631657	11.93	1.63	-3.96	-11.14
45.73684210526394	10.10	0.42	-5.66	-8.35
45.78947368421131	10.50	0.63	-5.13	-9.14
45.84210526315868	8.69	0.14	-7.13	-4.97
45.89473684210605	9.80	-0.14	-6.42	-7.41
45.94736842105342	14.04	-0.80	-7.16	-12.05
46.00000000000079	8.70	-0.36	-7.22	-4.84
46.05263157894816	10.81	-1.68	-7.58	-7.52
46.10526315789553	10.81	-2.44	-7.41	-7.48
46.1578947368429	9.92	-2.60	-8.61	-4.18
46.21052631579027	10.76	-1.98	-6.31	-8.49
46.26315789473764	12.62	-1.29	-5.39	-11.34
46.31578947368501	9.99	-3.01	-7.29	-6.14
46.36842105263238	8.86	-0.08	-5.68	-6.79
46.42105263157975	7.24	-0.95	-5.83	-4.18
46.47368421052712	10.60	-2.48	-7.39	-7.18
46.52631578947449	10.69	-0.68	-7.96	-7.10
46.57894736842186	10.35	-0.23	-7.50	-7.14
46.63157894736923	8.93	-0.84	-6.97	-5.52
46.6842105263166	8.92	-1.12	-5.10	-7.23
46.73684210526397	9.91	-2.28	-6.84	-6.80
46.78947368421134	8.48	-0.83	-5.17	-6.67
46.84210526315871	7.75	-1.25	-5.81	-4.97
46.89473684210608	12.67	-3.19	-8.40	-8.93
46.94736842105345	12.84	-1.61	-10.38	-7.39
47.00000000000082	13.73	-0.33	-10.40	-8.95
47.05263157894819	14.32	-1.31	-9.81	-10.35
47.10526315789556	11.28	-0.72	-8.48	-7.41
47.15789473684293	9.23	-0.62	-5.91	-7.06
47.2105263157903	8.59	-1.83	-5.04	-6.72
47.26315789473767	9.99	-3.61	-6.27	-6.89
47.31578947368504	9.94	-2.34	-7.09	-6.56
47.36842105263241	11.71	-1.71	-7.10	-9.15
47.42105263157978	12.10	-2.10	-7.93	-8.89
47.473684210527146	10.92	-1.91	-8.10	-7.07
47.526315789474516	12.18	-1.46	-6.89	-9.94
47.578947368421886	9.29	-2.40	-7.32	-5.20
47.631578947369256	9.45	-3.32	-6.27	-6.25
47.684210526316626	10.03	-3.61	-6.59	-6.64
47.736842105263996	9.58	-2.41	-7.96	-4.75
47.789473684211366	9.86	-1.25	-7.25	-6.57
47.842105263158736	9.58	-2.31	-7.44	-5.57
47.894736842106106	10.48	-2.75	-6.49	-7.76
47.947368421053476	9.52	-2.86	-6.65	-6.18
48.000000000000846	12.24	-3.61	-7.98	-8.55
48.052631578948215	11.17	-0.08	-5.23	-9.87
48.105263157895585	9.00	-1.59	-7.18	-5.19
48.157894736842955	9.57	-1.41	-5.05	-8.01
48.210526315790325	10.20	-3.97	-6.80	-6.48
48.263157894737695	8.80	-2.69	-7.40	-3.94
48.315789473685065	10.89	-1.69	-8.25	-6.91
48.368421052632435	10.48	-0.94	-4.88	-9.23
48.421052631579805	9.75	-2.67	-8.25	-4.46
48.473684210527175	9.64	-1.72	-7.97	-5.13
48.526315789474545	7.47	-1.58	-5.67	-4.60
48.578947368421915	12.18	-3.37	-6.22	-9.91
48.631578947369285	12.35	-3.33	-8.83	-7.97
48.684210526316654	11.77	-1.41	-6.89	-9.43
48.736842105264024	11.47	-2.19	-7.20	-8.66
48.789473684211394	8.14	-1.82	-6.09	-5.08
48.842105263158764	8.53	-1.93	-5.57	-6.17
48.894736842106134	9.01	-2.78	-6.93	-5.05
48.947368421053504	11.16	-4.01	-9.23	-4.83
49.000000000000874	13.53	-2.41	-8.89	-9.91
49.052631578948244	12.07	-3.27	-9.64	-6.47
49.105263157895614	9.54	0.00	-6.21	-7.24
49.157894736842984	9.84	-2.58	-7.53	-5.79
49.210526315790354	7.68	-2.98	-5.63	-4.29
49.26315789473772	8.40	-2.40	-4.20	-6.87
49.31578947368509	13.53	-1.35	-8.10	-10.75
49.36842105263246	13.42	-3.44	-9.45	-8.88
49.42105263157983	8.26	2.24	-1.23	-7.86
49.4736842105272	11.97	1.10	-4.56	-11.01
49.52631578947457	10.06	-2.79	-8.26	-5.03
49.57894736842194	12.35	-0.86	-5.28	-11.13
49.63157894736931	10.64	-2.77	-9.42	-4.10
49.68421052631668	7.41	-1.53	-6.37	-3.48
49.73684210526405	12.69	-0.44	-2.47	-12.44
49.78947368421142	10.42	-2.97	-8.15	-5.77
49.84210526315879	7.41	-2.49	-5.23	-4.63
49.89473684210616	12.88	0.29	-0.95	-12.85
49.94736842105353	10.97	-3.22	-10.31	-1.95
50.0000000000009	10.79	-2.92	-7.23	-7.46
50.05263157894827	12.75	1.25	-3.51	-12.20
50.10526315789564	10.80	-2.15	-10.18	-2.88
50.15789473684301	10.10	-1.37	-7.68	-6.42
50.21052631579038	7.27	-1.23	-5.67	-4.37
50.26315789473775	10.96	0.48	-3.11	-10.50
50.31578947368512	14.04	-0.74	-8.69	-11.00
50.36842105263249	7.48	-1.79	-7.24	-0.57
50.42105263157986	14.40	2.39	-1.16	-14.16
50.47368421052723	12.59	-3.26	-11.45	-4.09
50.5263157894746	14.21	0.81	-7.22	-12.21
50.57894736842197	11.45	-0.47	-9.57	-6.27
50.63157894736934	6.12	-0.92	-5.34	-2.84
50.68421052631671	11.41	-0.71	-3.11	-10.96
50.73684210526408	11.53	-4.28	-9.32	-5.27
50.78947368421145	12.57	3.36	-5.48	-10.80
50.84210526315882	11.40	-0.72	-9.49	-6.28
50.89473684210619	8.89	-1.93	-6.65	-5.58
50.94736842105356	8.53	-1.90	-6.44	-5.26
51.00000000000093	12.39	-2.09	-5.68	-10.82
51.0526315789483	11.21	-1.97	-6.49	-8.93
51.10526315789567	12.27	-3.51	-11.53	-2.33
51.15789473684304	9.49	-2.34	-9.19	-0.27
51.21052631579041	12.16	-2.64	-10.10	-6.24
51.26315789473778	9.99	-2.77	-9.17	-2.83
51.31578947368515	6.47	-0.80	-4.86	-4.19
51.36842105263252	8.08	-0.53	-2.13	-7.78
51.42105263157989	9.65	-4.29	-7.06	-4.98
51.47368421052726	7.62	-3.00	-6.69	-2.07
51.52631578947463	9.53	0.52	-8.06	-5.06
51.578947368422	9.18	-1.27	-7.17	-5.58
51.63157894736937	14.40	-0.52	-7.86	-12.06
51.68421052631674	11.01	-2.84	-9.87	-3.95
51.73684210526411	8.85	-0.25	-5.07	-7.25
51.78947368421148	11.92	0.15	-8.73	-8.11
51.84210526315885	10.17	-2.38	-9.63	-2.26
51.89473684210622	12.95	2.21	-3.30	-12.33
51.94736842105359	14.13	-3.94	-11.04	-7.88
52.00000000000096	8.55	2.18	-5.62	-6.07
52.05263157894833	6.69	1.51	-3.74	-5.34
52.1052631578957	12.21	-2.43	-9.62	-7.11
52.15789473684307	9.08	-1.04	-8.14	-3.89
52.21052631579044	9.60	-2.22	-7.21	-5.93
52.26315789473781	8.95	-1.71	-6.88	-5.47
52.31578947368518	9.29	0.82	-4.60	-8.03
52.36842105263255	8.32	1.36	-4.23	-7.03
52.42105263157992	11.58	-1.71	-8.40	-7.78
52.47368421052729	10.09	-1.67	-8.63	-4.96
52.52631578947466	9.70	-1.40	-5.94	-7.54
52.57894736842203	14.32	-1.85	-9.10	-10.90
52.6315789473694	9.25	-0.46	-7.34	-5.61
52.68421052631677	9.22	-1.85	-7.56	-4.94
52.73684210526414	9.28	-0.53	-6.71	-6.39
52.78947368421151	7.92	-0.76	-6.46	-4.52
52.84210526315888	5.93	0.02	-5.20	-2.85
52.89473684210625	7.44	-1.82	-5.53	-4.62
52.94736842105362	7.05	-1.83	-4.91	-4.71
53.00000000000099	10.85	-0.49	-8.54	-6.68
53.05263157894836	9.77	-0.73	-8.23	-5.22
53.10526315789573	13.28	-2.35	-9.45	-9.03
53.1578947368431	12.46	-2.48	-10.81	-5.70
53.21052631579047	10.87	1.33	-7.99	-7.25
53.26315789473784	12.01	-0.26	-7.97	-8.98
53.31578947368521	8.59	-0.15	-6.39	-5.74
53.36842105263258	11.43	-1.01	-8.27	-7.83
53.42105263157995	10.33	1.54	-4.65	-9.09
53.47368421052732	11.16	-1.00	-6.97	-8.66
53.52631578947469	12.16	0.06	-6.98	-9.96
53.57894736842206	9.27	-0.45	-7.18	-5.84
53.63157894736943	11.04	-2.33	-9.03	-5.89
53.6842105263168	10.96	-0.31	-7.70	-7.79
53.73684210526417	9.23	-0.16	-7.26	-5.69
53.789473684211536	8.82	-1.07	-7.33	-4.80
53.842105263158906	10.03	-1.78	-8.63	-4.79
53.894736842106276	11.05	-0.49	-5.68	-9.46
53.947368421053646	11.38	-0.73	-5.87	-9.72
54.000000000001016	9.68	-0.13	-6.53	-7.14
54.052631578948386	9.86	0.34	-7.16	-6.78
54.105263157895756	10.22	-0.53	-5.78	-8.41
54.157894736843126	11.73	-1.68	-8.81	-7.57
54.210526315790496	10.95	-0.16	-8.37	-7.06
54.263157894737866	8.38	0.19	-7.24	-4.21
54.315789473685236	12.25	-1.81	-7.43	-9.56
54.368421052632605	10.06	-1.19	-7.96	-6.04
54.421052631579975	10.00	-0.11	-5.40	-8.42
54.473684210527345	8.95	-1.78	-7.78	-4.05
54.526315789474715	7.49	-0.24	-5.79	-4.75
54.578947368422085	11.25	-0.78	-9.46	-6.03
54.631578947369455	10.68	-0.54	-7.88	-7.19
54.684210526316825	11.56	0.69	-7.37	-8.89
54.736842105264195	12.69	0.42	-5.52	-11.42
54.789473684211565	6.26	-0.66	-6.21	0.41
54.842105263158935	18.92	-1.65	-10.82	-15.43
54.894736842106305	8.08	-0.90	-7.11	-3.73
54.947368421053675	10.17	1.41	-5.84	-8.20
55.000000000001044	10.08	0.12	-7.84	-6.34
55.052631578948414	7.94	-0.48	-7.51	-2.53
55.105263157895784	11.17	0.09	-4.35	-10.28
55.157894736843154	7.35	-1.07	-5.14	-5.14
55.210526315790524	7.21	-0.57	-4.50	-5.60
55.263157894737894	6.09	0.47	-3.71	-4.80
55.315789473685264	12.18	-2.57	-10.65	-5.32
55.368421052632634	13.11	0.29	-8.34	-10.11
55.421052631580004	11.47	-1.39	-8.23	-7.86
55.473684210527374	10.79	-2.07	-8.39	-6.45
55.526315789474744	6.98	-0.57	-6.87	-1.11
55.578947368422114	13.87	-1.38	-5.94	-12.46
55.63157894736948	12.94	-0.98	-8.68	-9.55
55.68421052631685	8.71	-0.43	-5.22	-6.96
55.73684210526422	8.88	-1.38	-8.13	-3.30
55.78947368421159	8.64	0.16	-3.91	-7.70
55.84210526315896	9.42	-2.21	-7.78	-4.83
55.89473684210633	9.11	-1.08	-4.68	-7.74
55.9473684210537	11.83	-2.48	-8.91	-7.37
56.00000000000107	10.96	-0.54	-8.18	-7.28
56.05263157894844	10.64	-1.44	-8.79	-5.83
56.10526315789581	13.15	-1.58	-9.31	-9.15
56.15789473684318	8.56	-0.39	-7.55	-4.02
56.21052631579055	7.65	-0.50	-6.47	-4.05
56.26315789473792	10.01	-0.81	-6.21	-7.81
56.31578947368529	8.83	-0.32	-5.72	-6.72
56.36842105263266	10.46	-1.81	-7.27	-7.30
56.42105263158003	10.10	-1.81	-7.78	-6.18
56.4736842105274	12.51	-1.46	-7.89	-9.60
56.52631578947477	7.40	-0.61	-5.31	-5.11
56.57894736842214	8.72	-0.90	-5.78	-6.47
56.63157894736951	10.56	-2.47	-9.26	-4.42
56.68421052631688	10.48	-0.47	-7.20	-7.61
56.73684210526425	12.56	-1.60	-9.01	-8.60
56.78947368421162	12.45	-1.48	-9.01	-8.46
56.84210526315899	9.64	-0.14	-6.07	-7.49
56.89473684210636	7.91	0.12	-4.90	-6.22
56.94736842105373	7.25	-2.05	-5.45	-4.33
57.0000000000011	10.78	-2.73	-7.80	-6.93
57.05263157894847	10.54	-3.07	-9.01	-4.53
57.10526315789584	13.21	-2.94	-7.17	-10.70
57.15789473684321	8.95	-1.39	-7.30	-5.00
57.21052631579058	12.37	-2.37	-9.33	-7.77
57.26315789473795	13.71	-0.80	-8.57	-10.67
57.31578947368532	12.07	-0.41	-8.99	-8.05
57.36842105263269	10.98	-0.92	-8.41	-6.99
57.42105263158006	10.75	-0.84	-7.64	-7.51
57.47368421052743	9.98	0.06	-6.39	-7.67
57.5263157894748	7.51	-1.51	-6.17	-4.02
57.57894736842217	10.09	-2.06	-7.84	-6.02
57.63157894736954	9.09	0.23	-7.44	-5.21
57.68421052631691	9.70	1.04	-5.67	-7.80
57.73684210526428	12.26	-2.47	-9.86	-6.86
57.78947368421165	13.48	0.16	-9.12	-9.92
57.84210526315902	14.60	1.19	-8.75	-11.63
57.89473684210639	16.01	0.82	-9.19	-13.08
57.94736842105376	6.71	0.96	-6.13	-2.55
58.00000000000113	7.19	-1.22	-6.02	-3.75
58.0526315789485	9.64	-2.55	-7.00	-6.12
58.10526315789587	11.66	-1.21	-9.51	-6.64
58.15789473684324	9.44	0.00	-6.98	-6.36
58.21052631579061	12.88	-2.03	-8.83	-9.16
58.26315789473798	9.63	-0.34	-6.49	-7.11
58.31578947368535	11.63	-1.29	-6.67	-9.43
58.36842105263272	5.59	-0.25	-4.83	-2.81
58.42105263158009	12.86	-1.71	-7.77	-10.10
58.47368421052746	12.11	-2.02	-11.21	-4.11
58.52631578947483	12.61	0.36	-9.05	-8.78
58.5789473684222	10.33	-1.40	-7.26	-7.21
58.63157894736957	10.36	-2.32	-8.24	-5.84
58.68421052631694	6.98	-0.23	-6.67	-2.04
58.73684210526431	9.82	-1.43	-6.99	-6.74
58.78947368421168	9.60	-0.42	-7.09	-6.45
58.84210526315905	9.24	0.33	-6.79	-6.25
58.89473684210642	10.75	-0.86	-6.25	-8.70
58.94736842105379	11.09	-1.46	-10.26	-3.94
59.00000000000116	9.60	0.92	-6.83	-6.68
59.05263157894853	9.08	-1.14	-8.10	-3.94
59.1052631578959	11.15	-1.33	-8.03	-7.62
59.15789473684327	10.85	-0.12	-8.57	-6.65
59.21052631579064	10.76	-1.40	-7.68	-7.41
59.26315789473801	9.73	0.36	-6.62	-7.13
59.31578947368538	11.52	-0.78	-7.52	-8.69
59.36842105263275	7.46	-0.96	-5.44	-5.02
59.42105263158012	10.52	-2.25	-8.53	-5.74
59.47368421052749	7.53	-0.58	-5.29	-5.33
59.52631578947486	11.45	-1.94	-9.05	-6.74
59.57894736842223	8.29	0.57	-5.81	-5.88
59.6315789473696	10.19	-0.70	-8.64	-5.35
59.68421052631697	10.37	-1.06	-7.25	-7.33
59.73684210526434	12.89	-0.94	-9.50	-8.66
59.78947368421171	9.54	0.56	-6.45	-7.01
59.84210526315908	10.56	-2.63	-9.31	-4.24
59.89473684210645	8.30	-1.04	-7.57	-3.26
59.94736842105382	11.37	-0.99	-8.90	-7.01
60.00000000000119	12.11	-0.08	-6.97	-9.90
60.05263157894856	9.13	0.07	-6.99	-5.88
60.105263157895926	8.24	0.13	-7.09	-4.19
60.157894736843296	12.93	0.69	-8.17	-9.99
60.210526315790666	9.57	-0.49	-7.91	-5.36
60.263157894738036	10.22	-0.44	-8.75	-5.25
60.315789473685406	12.08	-0.25	-7.38	-9.57
60.368421052632776	9.91	-1.37	-8.16	-5.45
60.421052631580146	7.67	0.15	-6.23	-4.46
60.473684210527516	13.78	-2.05	-9.69	-9.58
60.526315789474886	9.18	0.09	-4.83	-7.80
60.578947368422256	10.40	-1.11	-9.19	-4.74
60.631578947369626	10.90	0.07	-8.75	-6.50
60.684210526316996	7.80	0.95	-5.36	-5.59
60.736842105264365	12.24	-0.64	-7.56	-9.61
60.789473684211735	10.67	-1.42	-9.64	-4.35
60.842105263159105	11.14	0.51	-7.44	-8.28
60.894736842106475	7.79	0.31	-6.49	-4.30
60.947368421053845	9.67	0.39	-5.53	-7.92
61.000000000001215	11.30	-1.47	-9.67	-5.65
61.052631578948585	11.24	-1.35	-9.77	-5.38
61.105263157895955	9.60	0.61	-6.09	-7.40
61.157894736843325	12.43	-0.71	-7.74	-9.70
61.210526315790695	11.04	-0.62	-7.55	-8.03
61.263157894738065	6.51	-0.43	-5.58	-3.32
61.315789473685435	10.63	-0.07	-4.12	-9.80
61.368421052632804	7.43	-0.62	-7.27	-1.41
61.421052631580174	9.33	-1.84	-8.58	-3.18
61.473684210527544	13.90	-2.54	-11.01	-8.10
61.526315789474914	13.12	-0.39	-10.59	-7.74
61.578947368422284	9.45	-0.39	-8.90	-3.15
61.631578947369654	12.11	-2.31	-8.10	-8.70
61.684210526317024	9.62	-1.48	-6.54	-6.89
61.736842105264394	10.40	-0.29	-3.38	-9.83
61.789473684211764	9.48	-0.74	-5.82	-7.45
61.842105263159134	9.80	-0.60	-9.42	-2.61
61.894736842106504	8.44	-0.17	-7.56	-3.76
61.94736842105387	14.38	0.27	-8.86	-11.33
62.00000000000124	15.12	1.03	-9.34	-11.85
62.05263157894861	9.06	0.39	-8.53	-3.04
62.10526315789598	9.68	-0.91	-8.15	-5.15
62.15789473684335	7.66	-1.36	-7.18	-2.30
62.21052631579072	14.74	0.29	-5.28	-13.75
62.26315789473809	7.05	-0.62	-6.30	-3.11
62.31578947368546	14.05	-1.25	-7.01	-12.11
62.36842105263283	8.77	-1.40	-7.31	-4.65
62.4210526315802	11.04	-0.94	-8.34	-7.17
62.47368421052757	12.85	-0.65	-8.55	-9.57
62.52631578947494	8.79	-0.77	-7.15	-5.05
62.57894736842231	10.97	-1.53	-7.98	-7.37
62.63157894736968	8.44	-0.17	-7.32	-4.20
62.68421052631705	12.19	-1.18	-7.37	-9.63
62.73684210526442	12.83	-2.44	-8.44	-9.35
62.78947368421179	11.61	-0.98	-7.88	-8.47
62.84210526315916	10.01	0.75	-6.10	-7.90
62.89473684210653	9.27	-0.44	-7.13	-5.91
62.9473684210539	9.21	-0.62	-7.14	-5.78
63.00000000000127	11.72	-1.37	-9.71	-6.41
63.05263157894864	12.24	-1.05	-9.68	-7.42
63.10526315789601	11.23	-0.62	-9.63	-5.76
63.15789473684338	11.48	-0.98	-8.48	-7.67
63.21052631579075	8.21	-1.03	-7.56	-3.03
63.26315789473812	9.69	-0.69	-4.40	-8.60
63.31578947368549	7.61	-1.30	-6.25	-4.14
63.36842105263286	8.59	0.31	-6.62	-5.47
63.42105263158023	8.30	-0.45	-7.30	-3.93
63.4736842105276	9.85	-1.31	-8.41	-4.97
63.52631578947497	11.43	-1.37	-9.74	-5.83
63.57894736842234	10.65	0.54	-6.83	-8.15
63.63157894736971	10.19	-0.23	-6.69	-7.68
63.68421052631708	9.60	-0.90	-8.84	-3.64
63.73684210526445	10.00	0.44	-7.10	-7.03
63.78947368421182	7.69	-0.56	-6.64	-3.83
63.84210526315919	10.72	-0.34	-6.66	-8.40
63.89473684210656	12.13	-0.26	-7.79	-9.29
63.94736842105393	10.16	0.56	-8.10	-6.10
64.0000000000013	12.99	0.55	-9.03	-9.32
64.05263157894866	5.67	-0.08	-4.93	-2.80
64.10526315789603	9.05	1.50	-4.03	-7.96
64.1578947368434	9.22	-1.11	-8.19	-4.08
64.21052631579077	9.28	0.50	-7.61	-5.29
64.26315789473814	15.21	0.16	-9.38	-11.98
64.31578947368551	7.09	-0.41	-6.34	-3.14
64.36842105263288	10.33	-2.15	-9.79	-2.49
64.42105263158025	9.23	-0.42	-7.59	-5.23
64.47368421052762	9.73	-0.60	-6.17	-7.50
64.52631578947499	12.54	-0.85	-9.93	-7.61
64.57894736842236	9.04	-0.02	-8.09	-4.03
64.63157894736973	13.95	1.46	-8.91	-10.63
64.6842105263171	8.77	0.81	-7.15	-5.01
64.73684210526447	7.19	0.55	-5.47	-4.63
64.78947368421184	7.46	-1.07	-5.32	-5.13
64.84210526315921	8.95	-1.80	-5.10	-7.13
64.89473684210658	8.73	-0.34	-6.46	-5.86
64.94736842105395	9.67	-0.39	-8.21	-5.08
65.00000000000132	10.25	-0.07	-7.14	-7.35
65.05263157894869	10.91	-1.42	-8.91	-6.14
65.10526315789606	12.80	-0.45	-9.75	-8.27
65.15789473684343	10.95	0.06	-9.31	-5.76
65.2105263157908	9.67	0.37	-8.31	-4.94
65.26315789473817	9.41	-0.68	-6.93	-6.33
65.31578947368554	8.44	-0.79	-6.26	-5.61
65.36842105263291	9.01	-0.08	-7.07	-5.60
65.42105263158028	10.14	-0.13	-7.54	-6.78
65.47368421052765	10.35	-0.80	-7.93	-6.60
65.52631578947502	9.67	-0.05	-7.04	-6.63
65.57894736842239	8.66	-0.11	-7.15	-4.90
65.63157894736976	11.91	-1.18	-9.46	-7.14
65.68421052631713	10.08	-0.09	-6.97	-7.28
65.7368421052645	7.54	0.11	-6.54	-3.76
65.78947368421187	10.86	-1.27	-8.13	-7.09
65.84210526315924	11.33	-0.95	-8.19	-7.77
65.89473684210661	8.97	-0.38	-6.24	-6.43
65.94736842105398	9.52	-1.70	-7.26	-5.92
66.00000000000135	10.11	-1.06	-8.77	-4.92
66.05263157894872	10.40	-0.69	-8.21	-6.35
66.10526315789609	14.72	-1.26	-8.18	-12.18
66.15789473684346	10.39	0.26	-7.02	-7.65
66.21052631579083	12.66	-0.01	-8.21	-9.64
66.2631578947382	10.34	-2.33	-9.50	-3.33
66.31578947368557	9.87	-1.78	-8.56	-4.58
66.36842105263294	10.66	-0.30	-6.23	-8.64
66.42105263158031	11.87	-2.10	-6.94	-9.39
66.47368421052768	7.65	-0.24	-6.93	-3.23
66.52631578947505	11.56	0.64	-7.11	-9.09
66.57894736842242	12.67	-2.44	-9.82	-7.63
66.63157894736979	13.58	-1.26	-9.00	-10.09
66.68421052631716	10.70	-0.49	-7.86	-7.24
66.73684210526453	8.34	-0.32	-5.94	-5.85
66.7894736842119	8.45	-0.56	-5.92	-6.01
66.84210526315927	9.54	-0.22	-6.37	-7.09
66.89473684210664	10.12	-1.47	-7.91	-6.13
66.94736842105401	11.52	-1.52	-9.23	-6.73
67.00000000000138	11.55	-0.71	-8.72	-7.54
67.05263157894875	9.99	-0.56	-7.31	-6.79
67.10526315789612	9.47	-1.07	-6.36	-6.94
67.15789473684349	13.10	-1.37	-10.02	-8.33
67.21052631579086	8.08	0.50	-6.34	-5.00
67.26315789473823	11.08	-1.10	-5.75	-9.40
67.3157894736856	11.61	-1.57	-7.62	-8.62
67.36842105263297	6.73	0.57	-5.21	-4.22
67.42105263158034	10.77	-2.54	-9.22	-4.94
67.47368421052771	14.92	-2.70	-10.04	-10.70
67.52631578947508	9.45	-0.30	-6.78	-6.57
67.57894736842245	9.76	-2.37	-8.20	-4.73
67.63157894736982	8.95	-1.27	-6.88	-5.58
67.68421052631719	7.56	-1.57	-5.87	-4.50
67.73684210526456	10.28	-0.91	-8.51	-5.70
67.78947368421193	10.29	0.13	-6.81	-7.71
67.8421052631593	13.74	-1.93	-7.92	-11.06
67.89473684210667	5.39	-0.54	-5.03	-1.87
67.94736842105404	6.76	-0.46	-6.56	-1.59
68.0000000000014	6.96	-0.82	-5.45	-4.25
68.05263157894878	11.32	-2.82	-7.95	-7.55
68.10526315789615	10.35	-0.33	-7.52	-7.11
68.15789473684352	7.71	-0.70	-7.20	-2.66
68.21052631579089	8.90	-1.11	-7.47	-4.70
68.26315789473826	10.37	-0.44	-8.02	-6.56
68.31578947368563	6.85	-0.55	-6.65	-1.56
68.368421052633	9.26	-0.85	-8.57	-3.42
68.42105263158037	11.87	-0.95	-7.98	-8.74
68.47368421052774	9.36	-0.78	-7.77	-5.18
68.5263157894751	12.02	-1.49	-7.61	-9.18
68.57894736842248	10.52	-0.80	-8.13	-6.63
68.63157894736985	10.02	-0.28	-7.48	-6.66
68.68421052631722	8.90	-0.01	-6.54	-6.04
68.73684210526459	9.92	-0.82	-6.61	-7.35
68.78947368421196	9.28	-1.38	-7.80	-4.83
68.84210526315933	9.92	-0.54	-6.20	-7.73
68.8947368421067	11.34	-2.11	-6.82	-8.82
68.94736842105407	10.79	-1.30	-8.41	-6.64
69.00000000000144	8.79	0.40	-6.40	-6.01
69.0526315789488	11.29	-1.26	-6.81	-8.92
69.10526315789618	10.56	-1.79	-7.38	-7.33
69.15789473684355	7.56	-0.82	-7.03	-2.67
69.21052631579091	11.17	-1.05	-6.79	-8.81
69.26315789473828	11.85	-1.41	-9.48	-6.97
69.31578947368565	9.97	-0.29	-7.71	-6.31
69.36842105263302	8.92	-0.37	-6.58	-6.02
69.4210526315804	8.52	-0.92	-7.18	-4.49
69.47368421052776	8.81	-1.15	-5.78	-6.55
69.52631578947513	10.08	-1.56	-6.65	-7.42
69.5789473684225	9.39	-0.29	-6.62	-6.65
69.63157894736987	11.49	-0.96	-9.30	-6.68
69.68421052631724	9.63	-0.36	-7.54	-5.98
69.73684210526461	10.19	-1.15	-8.90	-4.82
69.78947368421198	10.80	-0.08	-7.11	-8.13
69.84210526315935	8.85	-0.49	-5.81	-6.66
69.89473684210672	7.89	-0.69	-5.27	-5.84
69.9473684210541	9.27	-0.93	-5.84	-7.14
70.00000000000146	10.13	-1.21	-7.87	-6.26
70.05263157894883	10.30	-0.14	-6.57	-7.93
70.1052631578962	11.40	-1.73	-8.44	-7.46
70.15789473684357	10.25	-0.25	-7.63	-6.83
70.21052631579094	9.11	-0.44	-7.75	-4.78
70.26315789473831	8.27	-0.09	-5.67	-6.01
70.31578947368568	8.81	-0.77	-7.19	-5.02
70.36842105263305	10.58	-0.48	-6.49	-8.34
70.42105263158042	10.03	-1.73	-7.44	-6.50
70.4736842105278	10.70	-1.62	-8.41	-6.41
70.52631578947516	11.75	-0.39	-9.28	-7.19
70.57894736842253	13.66	0.44	-8.13	-10.97
70.6315789473699	10.44	-1.93	-8.16	-6.22
70.68421052631727	9.47	-1.12	-6.07	-7.17
70.73684210526464	10.22	-1.64	-7.06	-7.20
70.78947368421201	10.69	-1.04	-7.21	-7.82
70.84210526315938	7.53	0.73	-4.46	-6.02
70.89473684210675	10.06	-1.48	-8.95	-4.35
70.94736842105412	11.53	-2.46	-9.73	-5.68
71.00000000000149	10.34	0.37	-6.15	-8.31
71.05263157894886	12.55	-0.23	-4.52	-11.71
71.10526315789623	8.20	-2.18	-5.37	-5.79
71.1578947368436	9.04	-2.60	-7.89	-3.57
71.21052631579097	8.58	-0.45	-7.00	-4.94
71.26315789473834	13.14	-1.52	-8.30	-10.07
71.31578947368571	10.24	-0.98	-6.75	-7.64
71.36842105263308	11.35	-0.95	-8.40	-7.58
71.42105263158045	7.03	0.27	-4.65	-5.26
71.47368421052782	12.24	-2.00	-8.27	-8.80
71.52631578947519	6.32	-0.48	-5.50	-3.08
71.57894736842256	10.84	-0.15	-6.40	-8.75
71.63157894736993	12.00	-1.85	-9.88	-6.56
71.6842105263173	15.53	-1.11	-12.74	-8.81
71.73684210526467	15.70	-0.57	-9.14	-12.75
71.78947368421204	13.84	-1.80	-8.00	-11.15
71.84210526315941	7.62	-0.21	-4.59	-6.07
71.89473684210678	6.94	-0.48	-4.06	-5.60
71.94736842105415	6.53	-1.36	-4.96	-4.02
72.00000000000152	8.46	-0.46	-5.91	-6.03
72.05263157894889	9.96	-0.59	-7.04	-7.01
72.10526315789626	10.06	-0.76	-7.35	-6.83
72.15789473684363	10.63	-0.45	-6.86	-8.11
72.210526315791	11.58	-1.46	-8.04	-8.21
72.26315789473837	10.36	-1.32	-8.16	-6.25
72.31578947368574	11.33	-1.98	-8.19	-7.57
72.36842105263311	11.22	-1.43	-8.24	-7.48
72.42105263158048	12.69	-1.96	-8.58	-9.14
72.47368421052785	9.17	-0.09	-6.11	-6.84
72.52631578947522	9.58	-1.08	-6.32	-7.12
72.57894736842259	9.62	-1.85	-7.31	-5.97
72.63157894736996	9.12	-0.63	-7.49	-5.16
72.68421052631733	8.69	-0.80	-6.02	-6.22
72.7368421052647	8.66	-0.93	-7.29	-4.57
72.78947368421207	10.94	-1.29	-8.70	-6.50
72.84210526315944	12.36	-2.06	-8.53	-8.70
72.89473684210681	10.41	-0.55	-5.85	-8.59
72.94736842105418	9.52	-0.85	-6.21	-7.17
73.00000000000155	9.79	-1.36	-7.28	-6.41
73.05263157894892	7.85	-0.04	-5.81	-5.29
73.10526315789629	9.66	-0.71	-5.87	-7.64
73.15789473684366	11.32	-1.90	-7.95	-7.84
73.21052631579103	12.77	-0.64	-9.03	-9.02
73.2631578947384	11.66	-0.17	-6.53	-9.66
73.31578947368577	9.45	-1.40	-7.02	-6.17
73.36842105263314	10.00	-1.11	-6.81	-7.23
73.42105263158051	10.51	-1.85	-8.28	-6.21
73.47368421052788	9.72	-0.40	-7.47	-6.21
73.52631578947525	10.80	-0.58	-7.15	-8.08
73.57894736842262	9.41	-1.42	-6.84	-6.31
73.63157894736999	9.43	-0.85	-6.82	-6.46
73.68421052631736	8.64	-0.47	-6.38	-5.81
73.73684210526473	10.63	-0.93	-7.32	-7.65
73.7894736842121	11.21	-1.42	-8.46	-7.22
73.84210526315947	9.45	-0.97	-5.87	-7.34
73.89473684210684	10.76	-0.35	-6.83	-8.31
73.94736842105421	6.98	-0.17	-5.07	-4.79
74.00000000000158	9.11	-1.68	-8.35	-3.24
74.05263157894895	12.47	-0.98	-8.78	-8.81
74.10526315789632	11.13	-0.16	-6.69	-8.89
74.15789473684369	10.79	-1.26	-7.56	-7.60
74.21052631579106	9.57	-0.76	-6.75	-6.74
74.26315789473843	8.56	-1.36	-6.14	-5.81
74.3157894736858	10.41	-0.10	-6.38	-8.22
74.36842105263317	10.14	-1.43	-6.98	-7.22
74.42105263158054	10.63	-1.66	-6.33	-8.37
74.4736842105279	11.24	-1.54	-7.77	-7.97
74.52631578947528	12.62	-2.40	-8.17	-9.32
74.57894736842265	8.97	-1.15	-5.71	-6.82
74.63157894737002	11.70	-1.02	-8.44	-8.04
74.68421052631739	9.37	-0.29	-6.84	-6.40
74.73684210526476	8.93	-0.63	-5.45	-7.04
74.78947368421213	9.63	-2.01	-7.60	-5.56
74.8421052631595	9.78	-0.61	-5.96	-7.73
74.89473684210687	9.92	-0.24	-7.08	-6.94
74.94736842105424	11.65	-1.43	-9.00	-7.25
75.0000000000016	7.74	-0.08	-5.20	-5.74
75.05263157894898	8.95	-2.37	-7.55	-4.18
75.10526315789635	11.00	-0.91	-7.13	-8.33
75.15789473684372	9.67	-1.09	-7.39	-6.15
75.21052631579109	11.68	-1.89	-6.56	-9.48
75.26315789473846	8.16	-0.41	-6.42	-5.01
75.31578947368583	7.09	-0.25	-5.20	-4.81
75.3684210526332	16.51	-4.24	-7.90	-13.86
75.42105263158057	11.18	-1.12	-7.50	-8.21
75.47368421052794	12.03	-1.38	-7.95	-8.92
75.5263157894753	7.26	-0.25	-6.03	-4.04
75.57894736842267	9.65	-1.37	-8.98	-3.25
75.63157894737004	10.98	-0.86	-8.78	-6.54
75.68421052631741	10.12	-0.21	-7.37	-6.93
75.73684210526478	7.55	-0.35	-4.97	-5.67
75.78947368421215	7.03	-0.74	-6.30	-3.04
75.84210526315952	10.69	-2.02	-7.19	-7.65
75.8947368421069	10.56	-1.77	-6.40	-8.20
75.94736842105426	10.85	-2.41	-6.17	-8.59
76.00000000000163	8.07	0.46	-6.49	-4.77
76.052631578949	10.39	-1.80	-7.14	-7.33
76.10526315789637	9.85	-0.88	-7.57	-6.25
76.15789473684374	11.10	-1.26	-8.13	-7.45
76.21052631579111	10.13	-1.27	-8.09	-5.96
76.26315789473848	8.11	-0.43	-7.40	-3.29
76.31578947368585	8.67	0.06	-6.70	-5.50
76.36842105263322	10.10	-1.50	-6.45	-7.63
76.4210526315806	10.94	-2.21	-8.97	-5.87
76.47368421052796	9.05	-0.04	-6.70	-6.08
76.52631578947533	10.31	-1.36	-6.26	-8.07
76.5789473684227	8.80	-0.99	-6.29	-6.08
76.63157894737007	11.10	-1.01	-7.07	-8.50
76.68421052631744	10.17	-0.92	-7.78	-6.49
76.73684210526481	10.16	-1.96	-7.37	-6.71
76.78947368421218	12.91	-2.66	-9.71	-8.08
76.84210526315955	11.41	-0.78	-8.51	-7.57
76.89473684210692	10.69	0.29	-5.46	-9.19
76.94736842105429	10.81	0.21	-5.52	-9.29
77.00000000000166	9.58	-1.31	-6.12	-7.26
77.05263157894903	10.42	-0.25	-6.20	-8.36
77.1052631578964	12.77	-1.36	-9.00	-8.96
77.15789473684377	10.25	0.05	-5.74	-8.50
77.21052631579114	6.67	0.37	-6.30	-2.16
77.26315789473851	13.28	-3.03	-12.16	-4.40
77.31578947368588	9.79	0.30	-6.10	-7.65
77.36842105263325	9.03	-1.86	-6.03	-6.47
77.42105263158062	9.13	-0.06	-6.35	-6.56
77.47368421052799	10.45	-0.31	-7.10	-7.66
77.52631578947536	8.01	-0.24	-6.39	-4.83
77.57894736842273	10.10	-2.19	-8.84	-4.38
77.6315789473701	14.60	-1.67	-9.25	-11.17
77.68421052631747	8.98	-0.25	-6.39	-6.31
77.73684210526484	9.31	-0.58	-6.14	-6.97
77.78947368421221	11.61	-1.69	-7.10	-9.02
77.84210526315958	8.91	-0.49	-7.26	-5.15
77.89473684210695	9.69	-1.05	-8.56	-4.41
77.94736842105432	9.54	-0.39	-6.02	-7.39
78.00000000000169	10.42	-1.40	-6.75	-7.82
78.05263157894906	11.53	-1.25	-7.44	-8.72
78.10526315789643	13.09	-1.98	-9.35	-8.94
78.1578947368438	11.13	-1.24	-7.62	-8.02
78.21052631579117	9.81	-0.12	-7.34	-6.50
78.26315789473854	10.54	-1.85	-7.97	-6.65
78.31578947368591	10.34	-0.53	-4.85	-9.11
78.36842105263328	10.73	-2.20	-7.93	-6.88
78.42105263158065	9.27	-0.78	-7.91	-4.77
78.47368421052802	9.55	-0.58	-7.20	-6.24
78.52631578947539	13.33	-1.88	-8.67	-9.94
78.57894736842276	10.11	0.46	-5.77	-8.29
78.63157894737013	7.90	-1.78	-7.08	-3.02
78.6842105263175	8.42	-2.19	-7.16	-3.86
78.73684210526487	9.12	-1.16	-6.82	-5.94
78.78947368421224	8.37	-0.09	-5.86	-5.98
78.84210526315961	10.25	-2.59	-8.68	-4.80
78.89473684210698	8.36	-1.05	-6.98	-4.48
78.94736842105435	11.53	-2.62	-8.67	-7.14
79.00000000000172	13.03	-1.53	-7.85	-10.29
79.05263157894909	7.68	-0.18	-5.50	-5.35
79.10526315789646	8.47	-1.88	-5.86	-5.83
79.15789473684383	8.61	-1.53	-7.62	-3.70
79.2105263157912	9.11	-1.11	-7.04	-5.68
79.26315789473857	10.56	-2.51	-7.04	-7.45
79.31578947368594	10.63	-1.71	-8.64	-5.95
79.36842105263331	12.14	-0.53	-9.17	-7.94
79.42105263158068	11.00	-0.54	-6.76	-8.66
79.47368421052805	11.58	-1.73	-6.12	-9.68
79.52631578947542	9.34	-1.14	-6.37	-6.72
79.57894736842279	8.25	-0.93	-7.46	-3.40
79.63157894737016	6.97	-0.35	-6.16	-3.23
79.68421052631753	11.91	-1.03	-5.96	-10.26
79.7368421052649	13.62	-2.59	-10.31	-8.51
79.78947368421227	12.44	-1.31	-9.83	-7.50
79.84210526315964	13.95	-1.85	-9.50	-10.05
79.89473684210701	10.63	-0.65	-8.83	-5.89
79.94736842105438	10.32	-0.68	-5.70	-8.58
80.00000000000175	11.91	-3.25	-7.12	-8.98
80.05263157894912	6.20	-0.12	-4.87	-3.84
80.10526315789649	7.04	-0.91	-5.72	-4.00
80.15789473684386	10.13	-2.70	-8.55	-4.72
80.21052631579123	11.74	-1.45	-9.37	-6.92
80.2631578947386	13.00	-0.67	-8.94	-9.41
80.31578947368597	12.98	-1.50	-9.35	-8.88
80.36842105263334	9.37	-0.42	-7.08	-6.13
80.42105263158071	7.15	-0.70	-5.24	-4.81
80.47368421052808	8.41	-1.80	-6.37	-5.19
80.52631578947545	7.88	-0.96	-6.32	-4.62
80.57894736842282	9.73	-1.52	-6.70	-6.89
80.63157894737019	10.33	-1.29	-8.10	-6.29
80.68421052631756	9.80	-0.41	-7.89	-5.79
80.73684210526493	10.63	-0.09	-8.11	-6.86
80.7894736842123	10.84	-1.02	-8.39	-6.79
80.84210526315967	12.60	-1.89	-9.78	-7.71
80.89473684210704	12.58	-0.88	-7.69	-9.91
80.9473684210544	10.95	-0.57	-7.47	-7.99
81.00000000000178	7.40	-0.30	-5.22	-5.24
81.05263157894915	7.09	-1.13	-5.68	-4.09
81.10526315789652	8.49	-0.86	-7.30	-4.25
81.15789473684389	10.88	-1.21	-7.75	-7.54
81.21052631579126	13.49	-2.57	-9.49	-9.24
81.26315789473863	12.20	-0.28	-8.12	-9.11
81.315789473686	12.16	-2.68	-8.95	-7.78
81.36842105263337	6.65	-1.27	-5.95	-2.69
81.42105263158074	6.25	0.95	-5.20	-3.33
81.4736842105281	10.79	-1.53	-6.27	-8.65
81.52631578947548	12.86	-1.68	-8.91	-9.12
81.57894736842285	8.39	0.39	-7.51	-3.73
81.63157894737022	9.90	-2.90	-8.22	-4.69
81.68421052631759	9.52	-1.07	-7.12	-6.22
81.73684210526496	10.11	-0.77	-7.93	-6.23
81.78947368421233	8.96	-0.19	-6.97	-5.62
81.8421052631597	9.52	-1.82	-7.05	-6.13
81.89473684210706	11.35	-1.96	-8.84	-6.84
81.94736842105443	9.68	-0.86	-8.58	-4.38
82.0000000000018	8.93	0.34	-6.91	-5.65
82.05263157894917	11.08	-1.05	-6.41	-8.98
82.10526315789654	10.39	-1.03	-6.88	-7.72
82.15789473684391	11.75	-1.03	-7.09	-9.31
82.21052631579128	11.72	-1.40	-8.12	-8.33
82.26315789473865	10.12	-0.51	-8.15	-5.98
82.31578947368602	9.04	-0.31	-6.23	-6.54
82.3684210526334	8.35	-1.88	-7.47	-3.23
82.42105263158076	9.09	-0.61	-6.14	-6.68
82.47368421052813	9.72	-0.06	-6.39	-7.33
82.5263157894755	10.46	-1.08	-6.67	-7.99
82.57894736842287	11.34	-2.37	-8.65	-6.93
82.63157894737024	7.42	-0.10	-6.46	-3.66
82.68421052631761	10.51	-1.07	-6.25	-8.38
82.73684210526498	8.54	-1.09	-6.73	-5.15
82.78947368421235	8.95	-1.11	-7.10	-5.35
82.84210526315972	11.40	-2.67	-9.95	-4.90
82.8947368421071	16.48	-2.08	-7.73	-14.40
82.94736842105446	10.91	-0.41	-6.35	-8.86
83.00000000000183	7.27	-0.41	-6.91	-2.22
83.0526315789492	8.29	-0.60	-6.63	-4.94
83.10526315789657	8.05	-1.32	-5.76	-5.47
83.15789473684394	12.71	-2.44	-8.54	-9.09
83.21052631579131	9.75	-1.17	-8.38	-4.84
83.26315789473868	8.80	-0.22	-5.51	-6.86
83.31578947368605	11.77	-1.85	-9.27	-7.02
83.36842105263342	8.34	-0.94	-7.62	-3.26
83.42105263158079	12.03	-2.32	-8.84	-7.82
83.47368421052816	10.41	-1.29	-8.55	-5.79
83.52631578947553	10.46	-0.15	-5.83	-8.68
83.5789473684229	10.40	-0.64	-6.72	-7.91
83.63157894737027	7.97	0.00	-4.54	-6.55
83.68421052631764	11.01	-1.19	-6.90	-8.50
83.73684210526501	11.53	-1.27	-9.44	-6.51
83.78947368421238	9.15	-0.53	-8.10	-4.22
83.84210526315975	13.28	-0.95	-9.17	-9.56
83.89473684210712	12.12	0.09	-7.18	-9.76
83.94736842105449	10.75	-1.23	-5.78	-8.98
84.00000000000186	8.79	-2.08	-6.40	-5.66
84.05263157894923	11.23	-1.53	-9.91	-5.06
84.1052631578966	10.51	-0.10	-7.13	-7.71
84.15789473684397	8.58	-0.93	-6.89	-5.03
84.21052631579134	7.55	-1.67	-6.95	-2.44
84.26315789473871	11.53	-3.17	-10.14	-4.48
84.31578947368608	9.19	-0.24	-6.05	-6.91
84.36842105263345	9.05	-2.26	-6.04	-6.35
84.42105263158082	7.58	-1.92	-7.01	-2.16
84.47368421052819	10.04	-0.78	-8.44	-5.38
84.52631578947556	10.10	-1.76	-8.86	-4.51
84.57894736842293	13.87	-2.21	-7.29	-11.59
84.6315789473703	8.22	-2.18	-7.05	-3.63
84.68421052631767	8.80	-1.55	-7.39	-4.53
84.73684210526504	9.10	-0.85	-7.86	-4.52
84.78947368421241	9.32	-1.24	-8.25	-4.14
84.84210526315978	8.71	-0.86	-6.65	-5.55
84.89473684210715	11.05	-1.11	-7.81	-7.74
84.94736842105452	10.82	-1.03	-7.65	-7.59
85.00000000000189	9.94	-0.64	-6.63	-7.38
85.05263157894926	8.09	-0.32	-6.41	-4.93
85.10526315789663	9.46	-1.47	-7.31	-5.81
85.157894736844	7.52	-0.46	-6.14	-4.32
85.21052631579137	9.49	-1.54	-7.92	-5.00
85.26315789473874	10.04	-0.83	-7.79	-6.28
85.31578947368611	9.75	-0.65	-8.34	-5.01
85.36842105263348	11.32	-1.07	-9.40	-6.20
85.42105263158085	9.80	-0.31	-7.69	-6.06
85.47368421052822	13.28	-2.19	-9.14	-9.38
85.52631578947559	9.52	-0.37	-6.15	-7.26
85.57894736842296	10.08	-1.06	-6.91	-7.26
85.63157894737033	11.41	-2.15	-6.98	-8.76
85.6842105263177	14.23	-2.10	-8.08	-11.52
85.73684210526507	11.03	-0.02	-7.87	-7.73
85.78947368421244	9.25	0.04	-6.97	-6.08
85.84210526315981	8.33	-2.94	-6.13	-4.80
85.89473684210718	12.17	-3.79	-7.74	-8.60
85.94736842105455	11.14	0.14	-7.63	-8.12
86.00000000000192	9.36	-1.71	-7.66	-5.11
86.05263157894929	9.25	-3.39	-8.23	-2.50
86.10526315789666	8.99	-2.24	-7.97	-3.52
86.15789473684403	14.66	-2.02	-7.74	-12.29
86.2105263157914	7.88	-1.01	-4.93	-6.06
86.26315789473877	10.57	-1.28	-6.20	-8.47
86.31578947368614	10.49	-0.18	-8.67	-5.89
86.36842105263351	13.40	-1.18	-9.27	-9.61
86.42105263158088	13.28	-3.01	-8.71	-9.56
86.47368421052825	6.36	0.18	-6.07	-1.88
86.52631578947562	10.24	-0.12	-7.97	-6.43
86.57894736842299	8.53	-0.79	-7.50	-3.99
86.63157894737036	11.83	-1.80	-5.99	-10.04
86.68421052631773	12.39	-2.70	-7.20	-9.72
86.7368421052651	9.69	0.19	-5.96	-7.63
86.78947368421247	9.35	-0.42	-5.82	-7.31
86.84210526315984	6.21	-0.62	-5.31	-3.16
86.8947368421072	10.37	-1.78	-9.86	-2.65
86.94736842105458	11.24	-0.66	-8.62	-7.18
87.00000000000195	14.41	-1.86	-8.89	-11.19
87.05263157894932	8.78	-1.94	-6.61	-5.45
87.10526315789669	10.14	-2.34	-9.15	-3.70
87.15789473684406	12.82	-2.63	-9.40	-8.31
87.21052631579143	8.91	0.55	-4.75	-7.53
87.2631578947388	11.02	-0.23	-4.31	-10.14
87.31578947368617	9.85	-0.70	-8.03	-5.66
87.36842105263354	8.27	-1.48	-5.65	-5.85
87.4210526315809	9.55	-2.54	-5.56	-7.34
87.47368421052828	9.37	-0.64	-7.09	-6.10
87.52631578947565	11.35	-0.40	-7.86	-8.18
87.57894736842302	9.39	-0.50	-7.60	-5.49
87.63157894737039	10.00	-1.02	-8.26	-5.55
87.68421052631776	9.43	-0.58	-6.93	-6.37
87.73684210526513	9.04	-1.24	-6.26	-6.40
87.7894736842125	12.67	-2.10	-7.25	-10.18
87.84210526315987	10.30	-1.31	-7.19	-7.27
87.89473684210724	9.42	-0.09	-7.80	-5.29
87.9473684210546	10.93	-0.38	-9.15	-5.96
88.00000000000198	10.67	-1.29	-8.19	-6.72
88.05263157894935	9.84	-1.05	-6.01	-7.73
88.10526315789672	8.70	-0.56	-7.12	-4.96
88.15789473684409	8.17	-1.22	-6.23	-5.14
88.21052631579145	11.13	-2.53	-8.14	-7.15
88.26315789473882	9.79	-0.38	-5.89	-7.81
88.3157894736862	8.09	-0.53	-5.86	-5.55
88.36842105263356	13.75	-3.45	-8.04	-10.61
88.42105263158093	10.45	-2.62	-8.40	-5.63
88.4736842105283	9.70	-1.96	-7.13	-6.28
88.52631578947567	8.65	-1.25	-7.84	-3.43
88.57894736842304	11.66	0.10	-6.01	-10.00
88.63157894737041	9.15	-0.76	-5.76	-7.07
88.68421052631778	9.08	-1.91	-5.59	-6.89
88.73684210526515	8.71	-0.71	-7.12	-4.97
88.78947368421252	10.20	-0.18	-7.55	-6.86
88.8421052631599	10.39	-0.75	-8.77	-5.52
88.89473684210726	12.77	-0.32	-7.23	-10.52
88.94736842105463	11.34	-0.86	-7.13	-8.78
89.000000000002	11.68	-1.29	-7.31	-9.02
89.05263157894937	10.33	-0.42	-7.25	-7.36
89.10526315789674	11.72	-0.82	-8.02	-8.50
89.15789473684411	11.27	-1.59	-9.11	-6.44
89.21052631579148	11.08	-1.31	-8.62	-6.84
89.26315789473885	7.55	-0.12	-6.11	-4.44
89.31578947368622	10.27	0.31	-5.31	-8.78
89.3684210526336	8.49	-0.50	-6.97	-4.82
89.42105263158096	8.12	-0.24	-5.96	-5.51
89.47368421052833	11.24	-2.36	-7.72	-7.82
89.5263157894757	10.47	-0.65	-6.57	-8.12
89.57894736842307	8.63	-1.06	-7.72	-3.69
89.63157894737044	10.55	0.01	-5.99	-8.68
89.68421052631781	12.15	-0.80	-9.48	-7.57
89.73684210526518	10.56	-0.91	-8.34	-6.40
89.78947368421255	11.07	-0.67	-8.42	-7.16
89.84210526315992	9.28	-0.22	-6.45	-6.67
89.89473684210729	8.60	-0.69	-6.26	-5.86
89.94736842105466	9.79	-1.46	-6.59	-7.09
90.00000000000203	7.86	-0.35	-6.02	-5.05
90.0526315789494	9.48	-0.55	-5.78	-7.50
90.10526315789677	10.34	-1.79	-7.04	-7.36
90.15789473684414	10.76	-1.63	-7.71	-7.33
90.21052631579151	11.25	-0.54	-7.94	-7.95
90.26315789473888	12.18	-0.62	-6.39	-10.35
90.31578947368625	12.37	-1.66	-10.25	-6.73
90.36842105263362	11.75	-0.60	-7.47	-9.05
90.42105263158099	12.46	-2.57	-7.92	-9.27
90.47368421052836	7.49	-0.80	-4.34	-6.06
90.52631578947573	7.09	-1.84	-6.15	-3.00
90.5789473684231	9.44	-2.63	-7.67	-4.84
90.63157894737047	12.38	-0.70	-6.35	-10.60
90.68421052631784	11.86	-1.15	-7.85	-8.82
90.73684210526521	11.68	-1.33	-6.89	-9.34
90.78947368421258	9.72	-1.52	-5.79	-7.65
90.84210526315995	8.36	-2.27	-6.62	-4.57
90.89473684210732	7.05	-1.65	-5.87	-3.54
90.94736842105469	9.30	-2.42	-7.81	-4.41
91.00000000000206	13.33	-3.07	-8.92	-9.42
91.05263157894943	12.98	-3.15	-7.05	-10.44
91.1052631578968	10.97	-2.74	-8.36	-6.54
91.15789473684417	9.64	-0.20	-7.56	-5.97
91.21052631579154	10.36	-0.11	-6.17	-8.32
91.26315789473891	9.61	-0.84	-7.28	-6.21
91.31578947368628	9.04	-0.49	-6.82	-5.91
91.36842105263365	9.86	-1.85	-6.53	-7.15
91.42105263158102	8.49	-1.83	-6.74	-4.83
91.47368421052839	9.50	0.06	-6.86	-6.57
91.52631578947576	9.32	-2.06	-8.33	-3.64
91.57894736842313	10.89	-1.66	-7.11	-8.08
91.6315789473705	10.96	-1.91	-8.45	-6.72
91.68421052631787	9.75	-0.45	-5.95	-7.71
91.73684210526524	9.63	-0.66	-6.86	-6.73
91.78947368421261	8.14	-1.22	-6.60	-4.61
91.84210526315998	8.27	-2.15	-6.12	-5.13
91.89473684210735	14.72	-2.54	-9.95	-10.55
91.94736842105472	9.55	0.08	-6.94	-6.57
92.00000000000209	11.21	-3.40	-8.05	-7.02
92.05263157894946	9.88	-1.78	-6.80	-6.95
92.10526315789683	8.70	-1.31	-7.00	-5.00
92.1578947368442	10.36	-2.27	-6.70	-7.58
92.21052631579157	9.91	-1.21	-5.81	-7.93
92.26315789473894	10.12	-1.72	-7.59	-6.48
92.31578947368631	11.01	-2.85	-7.25	-7.77
92.36842105263368	10.33	-1.44	-6.21	-8.14
92.42105263158105	9.13	-0.57	-6.25	-6.63
92.47368421052842	9.13	-2.70	-7.82	-3.86
92.52631578947579	12.46	-2.72	-7.07	-9.89
92.57894736842316	10.67	-1.61	-6.74	-8.11
92.63157894737053	12.59	-2.25	-9.07	-8.44
92.6842105263179	10.10	-2.56	-8.24	-5.24
92.73684210526527	12.17	-1.11	-8.84	-8.28
92.78947368421264	8.96	-1.52	-6.25	-6.24
92.84210526316001	9.19	-2.05	-6.13	-6.54
92.89473684210738	9.15	-0.94	-5.32	-7.39
92.94736842105475	8.16	-0.98	-5.59	-5.85
93.00000000000212	9.37	-1.16	-4.60	-8.07
93.05263157894949	10.51	-2.56	-7.71	-6.67
93.10526315789686	10.21	-2.79	-7.29	-6.59
93.15789473684423	8.58	-1.91	-6.17	-5.66
93.2105263157916	10.65	-2.30	-5.72	-8.68
93.26315789473897	10.79	-2.80	-8.85	-5.50
93.31578947368634	12.35	-1.73	-7.37	-9.76
93.3684210526337	8.91	-1.32	-6.67	-5.76
93.42105263158108	14.15	-2.12	-9.48	-10.29
93.47368421052845	9.54	-1.99	-7.46	-5.61
93.52631578947582	11.28	-0.86	-6.85	-8.93
93.57894736842319	11.02	-1.24	-7.38	-8.09
93.63157894737056	9.37	-2.01	-6.53	-6.41
93.68421052631793	7.79	-1.21	-4.64	-6.15
93.7368421052653	8.92	-0.80	-5.66	-6.85
93.78947368421267	7.87	-0.53	-5.09	-5.98
93.84210526316004	9.40	-2.67	-7.40	-5.15
93.8947368421074	8.77	-2.52	-5.81	-6.06
93.94736842105478	10.86	-3.14	-8.50	-5.98
94.00000000000215	10.20	-2.45	-6.36	-7.59
94.05263157894952	10.03	-1.68	-6.07	-7.80
94.10526315789689	13.90	-3.55	-10.76	-8.05
94.15789473684426	8.70	-2.49	-6.82	-4.79
94.21052631579163	12.00	-0.49	-5.07	-10.87
94.263157894739	8.51	-2.76	-7.63	-2.56
94.31578947368637	10.90	-0.80	-5.04	-9.64
94.36842105263374	7.28	-1.53	-4.82	-5.23
94.4210526315811	7.88	-2.34	-4.41	-6.10
94.47368421052848	9.45	-3.88	-4.34	-7.45
94.52631578947585	11.26	-3.86	-7.70	-7.25
94.57894736842321	10.12	-0.59	-6.47	-7.76
94.63157894737058	13.09	0.27	-7.31	-10.85
94.68421052631795	11.58	-2.56	-7.87	-8.10
94.73684210526532	12.28	-4.72	-10.24	-4.86
94.7894736842127	6.93	-2.41	-4.00	-5.12
94.84210526316006	8.50	0.13	-4.01	-7.49
94.89473684210743	11.83	-1.41	-8.03	-8.58
94.9473684210548	10.86	-0.98	-7.19	-8.08
95.00000000000217	11.20	-2.24	-7.03	-8.42
95.05263157894954	10.16	-1.34	-7.11	-7.14
95.10526315789691	10.46	-1.15	-9.11	-5.02
95.15789473684428	11.93	-0.38	-8.33	-8.53
95.21052631579165	11.03	-1.04	-9.02	-6.26
95.26315789473902	11.66	2.22	-7.07	-9.01
95.3157894736864	11.62	0.56	-8.25	-8.17
95.36842105263376	9.43	-0.94	-7.52	-5.62
95.42105263158113	9.25	0.50	-5.17	-7.65
95.4736842105285	10.14	-0.38	-6.33	-7.91
95.52631578947587	10.22	-0.99	-7.35	-7.04
95.57894736842324	10.14	-0.81	-6.47	-7.77
95.63157894737061	10.97	-0.99	-7.92	-7.53
95.68421052631798	10.21	-0.86	-7.72	-6.62
95.73684210526535	7.64	-0.73	-5.95	-4.74
95.78947368421272	8.17	-0.82	-5.72	-5.77
95.8421052631601	8.57	-1.25	-7.10	-4.64
95.89473684210746	9.87	0.04	-6.74	-7.21
95.94736842105483	10.86	0.14	-6.90	-8.39
96.0000000000022	11.63	-1.59	-7.91	-8.38
96.05263157894957	11.07	-1.49	-6.87	-8.55
96.10526315789694	9.91	-0.66	-6.71	-7.27
96.15789473684431	11.06	-1.07	-7.44	-8.12
96.21052631579168	9.15	-0.63	-6.65	-6.25
96.26315789473905	9.68	-1.32	-7.47	-6.02
96.31578947368642	9.21	-1.09	-6.15	-6.76
96.36842105263379	8.89	-0.09	-6.48	-6.09
96.42105263158116	10.01	-1.10	-7.12	-6.95
96.47368421052853	10.51	-1.49	-7.25	-7.46
96.5263157894759	10.38	-0.76	-7.12	-7.51
96.57894736842327	10.38	-0.22	-7.14	-7.53
96.63157894737064	10.91	-0.79	-7.58	-7.81
96.68421052631801	10.39	-0.83	-7.81	-6.80
96.73684210526538	9.13	-0.22	-6.96	-5.90
96.78947368421275	10.36	0.03	-7.25	-7.40
96.84210526316012	9.66	0.03	-6.63	-7.02
96.89473684210749	9.96	0.32	-6.34	-7.68
96.94736842105486	8.71	0.20	-5.91	-6.39
97.00000000000223	10.44	0.61	-6.15	-8.41
97.0526315789496	9.66	0.03	-7.17	-6.48
97.10526315789697	10.25	-0.27	-7.21	-7.29
97.15789473684434	11.11	0.19	-7.82	-7.90
97.21052631579171	9.50	0.03	-7.10	-6.32
97.26315789473908	9.88	0.20	-6.22	-7.68
97.31578947368645	8.93	0.20	-6.39	-6.24
97.36842105263382	9.89	0.04	-6.94	-7.05
97.42105263158119	8.18	0.57	-5.89	-5.65
97.47368421052856	10.75	2.21	-4.11	-9.68
97.52631578947593	11.57	-1.33	-9.55	-6.40
97.5789473684233	11.96	0.36	-7.91	-8.96
97.63157894737067	9.75	0.51	-7.17	-6.58
97.68421052631804	8.51	1.50	-6.54	-5.23
97.73684210526541	8.83	1.75	-5.25	-6.88
97.78947368421278	10.77	-0.39	-5.93	-8.98
97.84210526316015	10.32	-0.25	-5.93	-8.44
97.89473684210752	11.21	0.73	-6.40	-9.18
97.94736842105489	9.96	-0.25	-7.75	-6.24
98.00000000000226	8.57	0.18	-6.85	-5.16
98.05263157894963	9.67	0.30	-6.76	-6.91
98.105263157897	10.05	0.62	-5.82	-8.16
98.15789473684437	9.73	-0.02	-6.51	-7.23
98.21052631579174	11.81	-0.32	-7.01	-9.50
98.26315789473911	10.32	1.43	-5.24	-8.77
98.31578947368648	9.31	0.64	-7.00	-6.11
98.36842105263385	9.87	1.47	-6.34	-7.42
98.42105263158122	10.15	0.15	-7.26	-7.09
98.47368421052859	9.66	0.62	-6.55	-7.07
98.52631578947596	10.21	1.34	-6.47	-7.79
98.57894736842333	10.84	0.43	-6.86	-8.39
98.6315789473707	10.26	0.10	-6.98	-7.52
98.68421052631807	9.90	0.77	-6.70	-7.24
98.73684210526544	9.44	0.44	-6.28	-7.04
98.78947368421281	10.27	0.14	-5.93	-8.39
98.84210526316018	9.70	0.57	-5.92	-7.66
98.89473684210755	10.64	0.55	-6.45	-8.45
98.94736842105492	10.13	0.19	-6.80	-7.50
99.00000000000229	10.55	-0.17	-7.01	-7.89
99.05263157894966	10.06	0.36	-6.91	-7.30
99.10526315789703	9.86	0.49	-6.61	-7.29
99.1578947368444	9.50	0.35	-6.19	-7.20
99.21052631579177	10.11	0.19	-6.80	-7.48
99.26315789473914	9.85	0.56	-6.21	-7.62
99.31578947368651	10.36	-0.26	-7.01	-7.62
99.36842105263388	10.43	0.03	-6.99	-7.74
99.42105263158125	9.59	0.07	-6.75	-6.81
99.47368421052862	10.22	0.24	-6.63	-7.77
99.52631578947599	10.80	0.17	-6.66	-8.50
99.57894736842336	9.43	0.14	-5.51	-7.65
99.63157894737073	9.51	-0.79	-6.73	-6.67
99.6842105263181	10.72	-0.38	-7.03	-8.08
99.73684210526547	10.67	1.58	-5.29	-9.12
99.78947368421284	10.73	0.56	-7.08	-8.05
99.8421052631602	9.62	-0.18	-7.33	-6.23
99.89473684210758	10.08	0.12	-7.16	-7.10
99.94736842105495	9.58	0.81	-6.59	-6.90
100.00000000000232	10.00	0.41	-6.71	-7.41
100.05263157894969	10.75	0.60	-6.89	-8.22
100.10526315789706	10.02	0.25	-6.77	-7.39
100.15789473684443	10.23	-0.08	-7.21	-7.26
100.2105263157918	9.58	0.00	-6.67	-6.87
100.26315789473917	9.64	-0.13	-6.80	-6.83
100.31578947368654	10.38	-0.06	-7.10	-7.56
100.3684210526339	10.12	0.41	-6.92	-7.37
100.42105263158128	10.18	0.50	-7.15	-7.23
100.47368421052865	10.29	0.26	-6.87	-7.66
100.52631578947602	10.10	0.09	-7.37	-6.90
100.57894736842339	10.26	0.07	-7.27	-7.24
100.63157894737076	10.06	0.55	-6.82	-7.37
100.68421052631813	10.04	0.17	-7.23	-6.96
100.7368421052655	9.62	0.59	-6.77	-6.81
100.78947368421287	10.16	0.14	-7.05	-7.31
100.84210526316024	10.05	0.16	-6.88	-7.31
100.8947368421076	10.16	-0.29	-7.20	-7.17
100.94736842105497	10.06	-0.30	-6.85	-7.36
101.00000000000234	9.72	-0.23	-6.94	-6.80
101.05263157894971	9.82	-0.02	-6.78	-7.11
101.10526315789708	9.74	0.44	-6.71	-7.05
101.15789473684445	10.17	0.34	-6.89	-7.47
101.21052631579182	10.88	0.03	-7.30	-8.07
101.2631578947392	10.36	0.04	-7.23	-7.42
101.31578947368656	9.81	0.21	-6.69	-7.17
101.36842105263393	9.38	0.15	-6.49	-6.77
101.4210526315813	10.03	-0.21	-6.99	-7.19
101.47368421052867	10.13	0.40	-6.98	-7.33
101.52631578947604	10.48	0.43	-7.37	-7.44
101.57894736842341	10.12	0.39	-6.92	-7.37
101.63157894737078	9.99	0.17	-6.94	-7.18
101.68421052631815	9.72	-0.15	-6.86	-6.88
101.73684210526552	9.57	-0.24	-7.05	-6.46
101.7894736842129	9.99	0.11	-7.22	-6.90
101.84210526316026	9.98	0.03	-7.62	-6.45
101.89473684210763	9.92	0.15	-7.66	-6.31
101.947368421055	9.88	0.04	-7.59	-6.33
102.00000000000237	9.85	-0.00	-7.67	-6.18
102.05263157894974	10.06	-0.20	-7.97	-6.15
102.10526315789711	10.11	-0.19	-8.18	-5.93
102.15789473684448	10.28	0.03	-8.22	-6.17
102.21052631579185	9.86	0.35	-7.61	-6.27
102.26315789473922	9.93	0.16	-7.34	-6.70
102.31578947368659	9.86	-0.15	-7.00	-6.94
102.36842105263396	9.96	-0.38	-7.39	-6.66
102.42105263158133	9.61	0.20	-7.06	-6.51
102.4736842105287	9.92	-0.10	-7.63	-6.34
102.52631578947607	10.16	0.05	-7.84	-6.46
102.57894736842344	9.93	-0.02	-7.60	-6.39
102.63157894737081	9.96	-0.21	-7.82	-6.16
102.68421052631818	10.16	-0.24	-7.79	-6.52
102.73684210526555	9.93	-0.24	-7.64	-6.34
102.78947368421292	9.96	-0.10	-7.53	-6.52
102.84210526316029	9.69	-0.10	-7.35	-6.32
102.89473684210766	10.03	0.06	-7.41	-6.76
102.94736842105503	10.02	-0.01	-7.45	-6.69
103.0000000000024	10.01	-0.08	-7.70	-6.40
103.05263157894977	9.81	0.01	-7.68	-6.11
103.10526315789714	9.79	-0.20	-7.77	-5.96
103.15789473684451	9.89	0.13	-7.52	-6.42
103.21052631579188	9.84	0.13	-7.28	-6.63
103.26315789473925	10.11	0.01	-7.48	-6.79
103.31578947368662	10.09	-0.08	-7.39	-6.87
103.36842105263399	10.08	-0.25	-7.63	-6.58
103.42105263158136	10.04	-0.20	-7.66	-6.49
103.47368421052873	9.62	0.04	-7.51	-6.02
103.5263157894761	10.02	0.06	-7.64	-6.49
103.57894736842347	9.95	0.10	-7.41	-6.65
103.63157894737084	10.13	0.05	-7.57	-6.73
103.68421052631821	10.12	-0.04	-7.51	-6.78
103.73684210526558	10.06	-0.20	-7.64	-6.54
103.78947368421295	9.88	-0.14	-7.56	-6.36
103.84210526316032	9.57	0.01	-7.39	-6.08
103.89473684210769	9.92	0.11	-7.53	-6.46
103.94736842105506	9.92	0.14	-7.41	-6.59
104.00000000000243	10.15	0.01	-7.65	-6.67
104.0526315789498	10.05	-0.17	-7.66	-6.50
104.10526315789717	10.01	0.07	-7.56	-6.56
104.15789473684454	9.97	-0.17	-7.61	-6.44
104.21052631579191	10.17	-0.14	-7.61	-6.75
104.26315789473928	10.01	0.03	-7.52	-6.60
104.31578947368665	9.90	0.10	-7.34	-6.64
104.36842105263402	10.02	-0.24	-7.70	-6.42
104.42105263158139	9.72	-0.01	-7.49	-6.19
104.47368421052876	9.83	-0.30	-7.65	-6.16
104.52631578947613	9.87	-0.06	-7.52	-6.39
104.5789473684235	9.75	0.04	-7.50	-6.23
104.63157894737087	10.10	-0.08	-7.53	-6.73
104.68421052631824	10.00	-0.23	-7.46	-6.66
104.73684210526561	9.93	-0.26	-7.61	-6.37
104.78947368421298	9.96	-0.25	-7.45	-6.61
104.84210526316035	9.77	0.01	-7.65	-6.09
104.89473684210772	9.97	-0.24	-7.54	-6.52
104.94736842105509	9.94	-0.01	-7.36	-6.69
105.00000000000246	10.15	-0.04	-7.58	-6.76
105.05263157894983	9.91	-0.16	-7.38	-6.61
105.1052631578972	10.03	-0.26	-7.66	-6.47
105.15789473684457	9.96	-0.08	-7.56	-6.48
105.21052631579194	9.77	-0.07	-7.45	-6.31
105.26315789473931	10.00	0.01	-7.51	-6.59
105.31578947368668	9.92	0.04	-7.40	-6.61
105.36842105263405	10.07	-0.02	-7.59	-6.63
105.42105263158142	9.90	-0.04	-7.40	-6.57
105.47368421052879	9.99	-0.15	-7.57	-6.51
105.52631578947616	10.06	-0.17	-7.57	-6.62
105.57894736842353	9.67	-0.02	-7.41	-6.21
105.6315789473709	10.08	-0.07	-7.68	-6.54
105.68421052631827	9.78	0.07	-7.35	-6.45
105.73684210526564	10.13	-0.32	-7.55	-6.75
105.78947368421301	9.79	-0.21	-7.44	-6.36
105.84210526316038	9.71	-0.24	-7.56	-6.08
105.89473684210775	9.93	-0.01	-7.38	-6.65
105.94736842105512	9.97	-0.14	-7.50	-6.56
106.00000000000249	9.88	-0.20	-7.43	-6.51
106.05263157894986	9.94	-0.09	-7.33	-6.71
106.10526315789723	10.12	-0.24	-7.55	-6.74
106.1578947368446	9.89	-0.27	-7.53	-6.42
106.21052631579197	10.11	-0.15	-7.56	-6.71
106.26315789473934	9.99	-0.26	-7.60	-6.48
106.3157894736867	9.75	-0.24	-7.41	-6.33
106.36842105263408	10.07	-0.14	-7.52	-6.70
106.42105263158145	9.94	-0.12	-7.34	-6.70
106.47368421052882	10.06	-0.37	-7.66	-6.51
106.52631578947619	9.71	-0.16	-7.37	-6.31
106.57894736842356	9.72	-0.25	-7.55	-6.11
106.63157894737093	10.14	-0.27	-7.53	-6.79
106.6842105263183	9.61	-0.05	-7.32	-6.24
106.73684210526567	10.17	-0.19	-7.61	-6.74
106.78947368421304	10.11	-0.17	-7.54	-6.74
106.8421052631604	9.97	-0.38	-7.60	-6.44
106.89473684210778	9.96	-0.31	-7.55	-6.49
106.94736842105515	9.59	-0.27	-7.36	-6.15
107.00000000000252	9.86	-0.33	-7.45	-6.46
107.05263157894989	9.63	-0.15	-7.23	-6.36
107.10526315789726	10.29	-0.23	-7.54	-7.00
107.15789473684463	10.20	-0.38	-7.48	-6.92
107.210526315792	9.98	-0.47	-7.68	-6.35
107.26315789473936	10.06	-0.14	-7.61	-6.58
107.31578947368673	9.91	-0.03	-7.61	-6.35
107.3684210526341	9.92	-0.31	-7.66	-6.30
107.42105263158147	9.96	-0.29	-7.89	-6.07
107.47368421052884	10.49	-0.35	-8.45	-6.20
107.52631578947621	10.06	-0.07	-8.01	-6.08
107.57894736842358	9.77	-0.22	-7.79	-5.88
107.63157894737095	9.49	-0.04	-7.72	-5.52
107.68421052631832	9.88	-0.18	-7.76	-6.12
107.7368421052657	10.17	-0.42	-7.64	-6.71
107.78947368421306	10.26	-0.27	-7.66	-6.83
107.84210526316043	10.10	-0.27	-7.44	-6.83
107.8947368421078	9.97	-0.25	-7.19	-6.90
107.94736842105517	9.74	-0.34	-7.20	-6.54
108.00000000000254	10.03	-0.44	-7.34	-6.81
108.05263157894991	9.83	-0.29	-7.38	-6.49
108.10526315789728	9.90	-0.44	-7.21	-6.77
108.15789473684465	9.98	-0.29	-7.43	-6.65
108.21052631579202	9.95	-0.23	-7.32	-6.74
108.2631578947394	9.98	-0.57	-7.35	-6.73
108.31578947368676	10.02	-0.53	-7.55	-6.57
108.36842105263413	9.87	-0.26	-7.44	-6.49
108.4210526315815	9.74	0.03	-7.08	-6.69
108.47368421052887	10.09	-0.50	-7.42	-6.82
108.52631578947624	10.11	-0.49	-7.56	-6.69
108.57894736842361	9.80	-0.48	-7.33	-6.49
108.63157894737098	10.07	-0.23	-7.46	-6.77
108.68421052631835	9.60	-0.09	-7.10	-6.46
108.73684210526572	10.00	-0.30	-7.31	-6.81
108.78947368421309	10.01	-0.44	-7.33	-6.80
108.84210526316046	10.18	-0.52	-7.76	-6.57
108.89473684210783	9.89	-0.43	-7.52	-6.41
108.9473684210552	9.81	-0.09	-7.44	-6.40
109.00000000000257	9.75	-0.14	-7.47	-6.27
109.05263157894994	9.69	-0.04	-7.59	-6.02
109.10526315789731	9.94	-0.47	-7.80	-6.15
109.15789473684468	9.88	-0.18	-7.85	-6.00
109.21052631579205	10.10	-0.44	-8.08	-6.03
109.26315789473942	10.13	-0.37	-8.18	-5.97
109.31578947368679	10.06	-0.22	-8.05	-6.04
109.36842105263416	9.87	-0.49	-8.01	-5.74
109.42105263158153	10.17	-0.47	-8.36	-5.78
109.4736842105289	10.02	-0.24	-8.29	-5.63
109.52631578947627	10.03	-0.46	-8.22	-5.73
109.57894736842364	9.90	-0.38	-8.25	-5.46
109.63157894737101	10.15	-0.37	-8.44	-5.62
109.68421052631838	10.08	-0.33	-8.30	-5.71
109.73684210526575	10.05	-0.32	-8.46	-5.42
109.78947368421312	9.94	-0.39	-8.51	-5.12
109.84210526316049	10.17	-0.21	-8.53	-5.54
109.89473684210786	9.84	-0.21	-8.34	-5.22
109.94736842105523	10.25	-0.41	-8.69	-5.42
110.0000000000026	9.98	-0.37	-8.71	-4.87
110.05263157894997	10.45	-0.31	-8.90	-5.48
110.10526315789734	9.62	-0.30	-8.47	-4.56
110.15789473684471	10.93	-0.49	-9.29	-5.74
110.21052631579208	9.92	-0.28	-8.42	-5.23
110.26315789473945	9.93	-0.55	-8.66	-4.83
110.31578947368682	10.22	-0.91	-9.09	-4.59
110.36842105263419	10.39	-0.45	-9.30	-4.62
110.42105263158156	10.05	-0.64	-8.61	-5.15
110.47368421052893	11.29	-0.68	-9.70	-5.74
110.5263157894763	13.98	-1.69	-10.95	-8.53
110.57894736842367	9.70	-0.21	-8.46	-4.74
110.63157894737104	6.68	0.88	-5.79	-3.22
110.68421052631841	12.82	-1.54	-9.46	-8.51
110.73684210526578	11.58	0.06	-9.70	-6.31
110.78947368421315	10.26	1.50	-8.31	-5.83
110.84210526316052	8.96	0.61	-7.08	-5.46
110.89473684210789	9.57	-1.38	-7.59	-5.67
110.94736842105526	10.92	-0.27	-8.94	-6.27
111.00000000000263	10.38	0.40	-8.85	-5.40
111.05263157895	10.27	0.32	-8.24	-6.12
111.10526315789737	9.48	-0.05	-7.82	-5.35
111.15789473684474	9.89	-0.57	-8.32	-5.33
111.21052631579211	10.97	-0.55	-9.63	-5.22
111.26315789473948	11.12	-0.70	-8.78	-6.79
111.31578947368685	11.17	-1.05	-8.81	-6.79
111.36842105263422	9.89	-0.54	-8.53	-4.97
111.42105263158159	9.98	-0.90	-8.26	-5.53
111.47368421052896	9.06	-0.83	-7.90	-4.36
111.52631578947633	10.74	-1.33	-8.51	-6.42
111.5789473684237	10.62	-0.28	-9.03	-5.59
111.63157894737107	11.00	-0.62	-9.08	-6.17
111.68421052631844	11.99	-1.17	-8.76	-8.10
111.73684210526581	9.20	0.10	-7.83	-4.83
111.78947368421318	9.09	0.21	-7.87	-4.54
111.84210526316055	12.38	-0.81	-8.99	-8.48
111.89473684210792	10.24	-0.44	-9.22	-4.42
111.94736842105529	9.26	-0.28	-8.15	-4.40
112.00000000000266	10.11	0.36	-9.56	-3.27
112.05263157895003	9.67	0.01	-8.16	-5.19
112.1052631578974	10.67	-0.52	-9.06	-5.60
112.15789473684477	12.49	0.09	-10.67	-6.50
112.21052631579214	9.41	0.07	-8.13	-4.73
112.2631578947395	10.20	0.23	-8.68	-5.35
112.31578947368688	8.01	0.85	-7.32	-3.16
112.36842105263425	10.35	-0.99	-8.73	-5.48
112.42105263158162	9.06	0.54	-7.68	-4.79
112.47368421052899	10.81	0.08	-9.05	-5.91
112.52631578947636	10.93	0.00	-8.51	-6.86
112.57894736842373	11.76	-0.50	-9.07	-7.47
112.6315789473711	9.99	-0.14	-6.20	-7.84
112.68421052631847	9.17	-1.67	-6.69	-6.04
112.73684210526584	10.55	-1.02	-7.69	-7.14
112.7894736842132	10.34	0.30	-7.87	-6.69
112.84210526316058	8.31	-0.08	-5.12	-6.54
112.89473684210795	11.36	-1.85	-8.15	-7.69
112.94736842105532	11.40	-0.96	-8.17	-7.89
113.00000000000269	9.80	-0.21	-7.11	-6.74
113.05263157895006	7.71	0.22	-6.52	-4.12
113.10526315789743	10.75	-0.80	-7.38	-7.77
113.1578947368448	12.77	-0.41	-6.84	-10.78
113.21052631579217	8.46	0.25	-7.61	-3.68
113.26315789473954	9.42	0.33	-6.93	-6.38
113.3157894736869	8.80	0.99	-7.05	-5.17
113.36842105263428	9.57	-0.29	-8.22	-4.90
113.42105263158165	8.34	-1.29	-7.71	-2.92
113.47368421052902	12.81	-0.37	-4.57	-11.96
113.52631578947639	8.69	0.47	-6.84	-5.34
113.57894736842375	11.06	0.36	-7.34	-8.27
113.63157894737112	9.84	-0.89	-8.13	-5.47
113.6842105263185	10.55	-0.96	-9.16	-5.16
113.73684210526586	8.07	1.21	-5.31	-5.95
113.78947368421323	9.65	-1.95	-8.84	-3.34
113.8421052631606	10.96	-1.31	-8.53	-6.76
113.89473684210797	7.71	0.85	-5.46	-5.38
113.94736842105534	11.67	-0.96	-9.08	-7.27
114.00000000000271	10.68	0.06	-6.71	-8.31
114.05263157895008	8.46	0.79	-5.07	-6.73
114.10526315789745	10.06	-1.10	-9.19	-3.95
114.15789473684482	8.59	-0.31	-7.46	-4.24
114.2105263157922	8.56	-1.18	-7.71	-3.53
114.26315789473956	10.27	-0.75	-7.52	-6.95
114.31578947368693	9.94	-0.02	-8.57	-5.04
114.3684210526343	10.31	-0.75	-7.93	-6.53
114.42105263158167	8.64	0.28	-6.84	-5.27
114.47368421052904	6.80	0.21	-5.98	-3.23
114.52631578947641	11.98	-1.17	-9.16	-7.63
114.57894736842378	11.34	0.01	-8.43	-7.59
114.63157894737115	11.21	0.45	-9.01	-6.65
114.68421052631852	14.71	-0.64	-10.67	-10.10
114.7368421052659	10.41	-0.74	-8.88	-5.38
114.78947368421326	12.00	-0.91	-8.84	-8.07
114.84210526316063	9.34	-0.97	-7.52	-5.46
114.894736842108	10.75	-0.19	-7.99	-7.19
114.94736842105537	10.53	0.98	-7.99	-6.78
115.00000000000274	8.64	0.70	-6.77	-5.32
115.05263157895011	10.10	-0.78	-8.65	-5.15
115.10526315789748	8.58	-0.87	-7.75	-3.60
115.15789473684485	11.19	-0.49	-9.30	-6.21
115.21052631579222	9.35	0.66	-6.79	-6.39
115.26315789473959	14.52	-1.13	-10.81	-9.63
115.31578947368696	9.39	-0.22	-7.13	-6.10
115.36842105263433	9.98	0.15	-7.86	-6.15
115.4210526315817	7.88	-0.32	-6.94	-3.72
115.47368421052907	11.68	-2.17	-9.50	-6.43
115.52631578947644	14.48	0.08	-8.58	-11.66
115.57894736842381	11.62	1.38	-8.18	-8.14
115.63157894737118	7.08	0.94	-5.86	-3.85
115.68421052631855	13.27	-1.01	-11.26	-6.95
115.73684210526592	8.60	0.20	-8.06	-3.01
115.78947368421329	8.52	2.67	-4.17	-6.94
115.84210526316066	13.25	-2.50	-11.52	-6.06
115.89473684210803	9.52	-1.30	-6.06	-7.23
115.9473684210554	8.78	-1.75	-6.91	-5.13
116.00000000000277	12.21	-0.29	-5.77	-10.75
116.05263157895014	10.27	-0.52	-8.16	-6.21
116.10526315789751	7.64	-0.04	-6.96	-3.14
116.15789473684488	9.53	1.89	-5.41	-7.61
116.21052631579225	11.69	-0.41	-10.34	-5.42
116.26315789473962	12.78	0.08	-9.22	-8.84
116.31578947368699	16.21	-2.41	-13.01	-9.37
116.36842105263436	13.96	-2.15	-12.42	-6.01
116.42105263158173	11.01	0.61	-9.41	-5.69
116.4736842105291	6.65	1.62	-5.97	-2.43
116.52631578947647	7.29	0.58	-5.35	-4.91
116.57894736842384	6.71	-1.52	-5.06	-4.14
116.63157894737121	8.48	-1.95	-5.14	-6.46
116.68421052631858	10.46	-1.04	-6.85	-7.84
116.73684210526595	12.28	-0.60	-7.92	-9.37
116.78947368421332	11.78	-1.17	-8.40	-8.18
116.84210526316069	9.72	-0.40	-8.22	-5.17
116.89473684210806	13.37	-1.81	-9.51	-9.22
116.94736842105543	10.58	-0.76	-6.60	-8.24
117.0000000000028	8.18	0.56	-7.03	-4.15
117.05263157895017	7.37	0.15	-6.70	-3.08
117.10526315789754	8.81	-0.31	-5.21	-7.09
117.15789473684491	9.85	0.19	-6.02	-7.79
117.21052631579228	9.69	-0.05	-7.47	-6.18
117.26315789473965	8.85	-0.29	-7.92	-3.92
117.31578947368702	9.33	-1.10	-6.98	-6.10
117.36842105263439	10.32	0.91	-6.54	-7.93
117.42105263158176	9.74	-1.05	-7.05	-6.63
117.47368421052913	12.84	-1.94	-7.68	-10.11
117.5263157894765	10.45	-1.20	-9.48	-4.23
117.57894736842387	10.70	-1.29	-7.94	-7.05
117.63157894737124	10.44	-1.24	-9.04	-5.07
117.68421052631861	13.41	-0.43	-8.21	-10.59
117.73684210526598	12.05	-2.50	-9.44	-7.06
117.78947368421335	7.81	-1.28	-7.08	-3.05
117.84210526316072	9.37	0.09	-3.77	-8.58
117.89473684210809	7.32	-1.34	-6.38	-3.33
117.94736842105546	10.51	-2.02	-6.89	-7.67
118.00000000000283	11.31	-2.08	-6.92	-8.70
118.0526315789502	7.78	-1.65	-7.50	-1.28
118.10526315789757	9.84	-0.32	-8.66	-4.66
118.15789473684494	16.20	-0.56	-11.34	-11.55
118.21052631579231	17.79	-0.94	-12.84	-12.28
118.26315789473968	9.03	-1.04	-8.73	-2.04
118.31578947368705	9.06	-0.87	-8.78	-2.07
118.36842105263442	8.75	0.49	-6.17	-6.18
118.42105263158179	9.43	1.69	-4.57	-8.08
118.47368421052916	9.14	-0.51	-6.23	-6.68
118.52631578947653	9.68	-0.81	-7.81	-5.67
118.5789473684239	11.51	-0.46	-9.03	-7.12
118.63157894737127	10.91	0.90	-7.58	-7.79
118.68421052631864	10.44	1.24	-7.23	-7.43
118.736842105266	7.68	0.02	-6.98	-3.20
118.78947368421338	8.52	-0.63	-7.78	-3.40
118.84210526316075	10.78	0.77	-9.06	-5.78
118.89473684210812	10.86	0.78	-8.17	-7.11
118.94736842105549	10.83	-0.83	-6.94	-8.28
119.00000000000286	9.86	-0.43	-8.09	-5.63
119.05263157895023	10.34	-0.23	-8.69	-5.59
119.1052631578976	11.17	-0.05	-9.81	-5.34
119.15789473684497	9.31	0.88	-8.01	-4.65
119.21052631579234	9.84	0.81	-7.37	-6.47
119.2631578947397	9.05	-1.61	-6.55	-6.03
119.31578947368708	9.17	-0.17	-6.79	-6.15
119.36842105263445	10.64	-0.71	-8.79	-5.96
119.42105263158182	10.55	-0.07	-8.59	-6.13
119.47368421052919	10.18	-0.72	-7.84	-6.45
119.52631578947656	11.01	-1.37	-8.20	-7.22
119.57894736842393	8.74	-0.15	-6.40	-5.96
119.6315789473713	9.51	-0.43	-7.34	-6.03
119.68421052631867	11.26	-0.96	-9.04	-6.65
119.73684210526604	10.58	-0.50	-9.39	-4.84
119.7894736842134	10.83	-1.09	-9.12	-5.74
119.84210526316078	10.42	-0.47	-8.48	-6.04
119.89473684210814	8.77	-0.65	-6.86	-5.43
119.94736842105551	9.46	-0.13	-7.75	-5.43
120.00000000000288	10.25	-0.33	-8.20	-6.14
120.05263157895025	10.87	-0.14	-8.80	-6.38
120.10526315789762	10.98	-0.26	-9.06	-6.20
120.157894736845	8.85	0.15	-7.52	-4.67
120.21052631579236	9.46	-0.91	-7.90	-5.12
120.26315789473973	9.28	-0.25	-7.40	-5.60
120.3157894736871	10.40	-0.81	-8.03	-6.56
120.36842105263447	10.89	-0.80	-9.30	-5.61
120.42105263158184	9.69	-0.02	-8.28	-5.03
120.47368421052921	9.75	-0.34	-7.66	-6.03
120.52631578947658	9.68	-0.98	-7.95	-5.43
120.57894736842395	10.54	-1.04	-8.76	-5.77
120.63157894737132	10.95	-0.97	-9.34	-5.63
120.6842105263187	9.61	0.41	-7.86	-5.52
120.73684210526606	9.11	0.36	-7.26	-5.48
120.78947368421343	9.34	-0.82	-7.93	-4.88
120.8421052631608	10.41	-0.90	-8.25	-6.28
120.89473684210817	10.06	-0.66	-8.64	-5.10
120.94736842105554	9.56	-0.19	-8.22	-4.87
121.00000000000291	10.59	-0.02	-7.93	-7.01
121.05263157895028	9.92	-0.34	-8.14	-5.66
121.10526315789765	10.64	-0.03	-8.41	-6.52
121.15789473684502	10.08	-0.02	-7.29	-6.96
121.21052631579239	9.21	-0.41	-8.90	-2.36
121.26315789473976	11.88	0.01	-9.07	-7.68
121.31578947368713	9.58	0.43	-7.61	-5.81
121.3684210526345	10.24	-0.30	-9.72	-3.19
121.42105263158187	10.41	1.65	-7.79	-6.71
121.47368421052924	11.30	-0.65	-9.94	-5.32
121.52631578947661	11.22	0.10	-9.23	-6.38
121.57894736842398	8.93	0.91	-6.63	-5.91
121.63157894737135	13.11	1.36	-7.17	-10.90
121.68421052631872	8.30	0.24	-6.79	-4.77
121.73684210526609	8.88	-0.47	-7.87	-4.10
121.78947368421346	9.30	0.20	-7.94	-4.84
121.84210526316083	10.18	0.11	-8.73	-5.23
121.8947368421082	10.60	-0.45	-8.47	-6.35
121.94736842105557	9.64	-0.67	-8.37	-4.73
122.00000000000294	9.96	0.16	-7.92	-6.05
122.05263157895031	8.90	0.19	-7.69	-4.49
122.10526315789768	9.09	-0.44	-7.78	-4.69
122.15789473684505	8.53	-0.06	-7.22	-4.54
122.21052631579242	9.21	-0.29	-8.11	-4.34
122.26315789473979	9.71	-0.94	-8.67	-4.27
122.31578947368716	10.62	-0.94	-9.12	-5.35
122.36842105263453	9.46	-0.29	-7.96	-5.09
122.4210526315819	9.71	-1.10	-8.11	-5.22
122.47368421052927	9.81	-0.70	-7.82	-5.89
122.52631578947664	10.67	-1.31	-8.80	-5.90
122.57894736842401	9.47	-0.48	-8.37	-4.42
122.63157894737138	9.29	-0.55	-8.15	-4.43
122.68421052631875	9.64	-0.93	-8.31	-4.79
122.73684210526612	11.28	-1.10	-9.86	-5.37
122.78947368421349	10.41	0.12	-7.99	-6.66
122.84210526316086	10.09	-0.14	-8.51	-5.41
122.89473684210823	8.97	-0.04	-7.91	-4.22
122.9473684210556	8.82	-0.42	-7.63	-4.40
123.00000000000297	8.44	-0.49	-6.97	-4.74
123.05263157895034	11.01	-1.17	-10.04	-4.37
123.10526315789771	10.71	-0.21	-9.22	-5.43
123.15789473684508	11.50	-0.69	-9.09	-7.01
123.21052631579245	8.87	0.28	-6.43	-6.11
123.26315789473982	8.54	-1.04	-7.02	-4.76
123.31578947368719	9.69	-0.88	-7.69	-5.83
123.36842105263456	9.44	-0.97	-7.50	-5.65
123.42105263158193	8.51	-0.27	-6.94	-4.93
123.4736842105293	10.37	-0.34	-7.97	-6.63
123.52631578947667	10.02	-0.45	-7.88	-6.16
123.57894736842404	9.20	-0.80	-7.58	-5.15
123.63157894737141	10.67	-1.53	-8.35	-6.46
123.68421052631878	11.34	-1.52	-8.48	-7.37
123.73684210526615	10.20	-0.80	-7.97	-6.31
123.78947368421352	9.33	-0.00	-6.98	-6.19
123.84210526316089	9.50	-0.69	-7.52	-5.76
123.89473684210826	10.25	-0.59	-7.93	-6.47
123.94736842105563	10.92	-0.61	-8.73	-6.54
124.000000000003	10.67	0.00	-8.25	-6.77
124.05263157895037	10.20	0.07	-7.57	-6.83
124.10526315789774	9.85	-0.19	-7.47	-6.42
124.15789473684511	9.20	-0.39	-6.73	-6.25
124.21052631579248	8.86	-1.28	-6.17	-6.23
124.26315789473985	11.00	-1.65	-7.56	-7.82
124.31578947368722	10.54	-0.53	-7.34	-7.54
124.36842105263459	9.93	-0.47	-6.77	-7.24
124.42105263158196	9.60	-1.08	-7.08	-6.40
124.47368421052933	10.09	-0.68	-7.15	-7.09
124.5263157894767	9.47	-0.64	-7.22	-6.10
124.57894736842407	9.72	-0.27	-6.49	-7.23
124.63157894737144	9.08	-0.15	-6.87	-5.94
124.68421052631881	11.16	-0.97	-8.06	-7.66
124.73684210526618	9.35	-0.52	-6.44	-6.77
124.78947368421355	9.90	-1.28	-6.57	-7.30
124.84210526316092	9.64	-1.24	-6.21	-7.27
124.89473684210829	11.02	-1.06	-9.24	-5.91
124.94736842105566	10.01	-0.48	-6.69	-7.43
125.00000000000303	10.44	-1.53	-7.53	-7.07
125.0526315789504	8.68	-0.09	-6.58	-5.65
125.10526315789777	8.44	0.42	-6.91	-4.83
125.15789473684514	9.44	-0.55	-6.88	-6.44
125.2105263157925	10.53	-0.29	-6.99	-7.86
125.26315789473988	12.19	-0.56	-7.58	-9.53
125.31578947368725	10.35	-0.67	-6.95	-7.64
125.36842105263462	10.83	-0.95	-6.72	-8.44
125.42105263158199	11.21	-1.05	-8.05	-7.73
125.47368421052936	8.12	1.25	-6.48	-4.73
125.52631578947673	10.92	-0.79	-6.76	-8.53
125.5789473684241	10.91	-0.91	-9.01	-6.08
125.63157894737147	11.09	-0.09	-7.37	-8.28
125.68421052631884	10.85	-1.46	-7.83	-7.38
125.7368421052662	9.35	0.27	-5.95	-7.21
125.78947368421358	9.54	-0.24	-6.11	-7.33
125.84210526316095	9.44	-1.57	-6.91	-6.24
125.89473684210832	10.18	0.00	-7.27	-7.12
125.94736842105569	8.87	-0.04	-6.89	-5.59
126.00000000000306	8.99	-0.83	-7.16	-5.37
126.05263157895043	10.09	-1.50	-7.60	-6.47
126.1052631578978	11.55	-1.46	-8.16	-8.05
126.15789473684517	10.60	-0.59	-6.95	-7.98
126.21052631579254	9.61	-0.98	-7.20	-6.29
126.2631578947399	9.61	-1.09	-7.29	-6.17
126.31578947368727	10.91	-1.16	-8.18	-7.13
126.36842105263464	9.42	-0.39	-6.24	-7.05
126.42105263158201	8.55	-0.26	-6.17	-5.92
126.47368421052938	8.71	-0.76	-6.36	-5.90
126.52631578947675	10.02	-0.73	-7.51	-6.59
126.57894736842412	9.45	-0.76	-7.14	-6.15
126.6315789473715	10.97	-1.14	-8.23	-7.17
126.68421052631886	10.88	-0.40	-7.79	-7.59
126.73684210526623	10.58	-0.29	-7.81	-7.14
126.7894736842136	9.74	0.05	-6.83	-6.94
126.84210526316097	10.11	-0.29	-7.15	-7.14
126.89473684210834	10.30	-0.70	-6.96	-7.56
126.94736842105571	10.25	-0.99	-7.21	-7.22
127.00000000000308	10.24	-0.55	-6.64	-7.77
127.05263157895045	9.69	-0.63	-6.53	-7.13
127.10526315789782	9.64	-1.07	-7.37	-6.12
127.1578947368452	10.18	-1.03	-7.53	-6.77
127.21052631579256	10.84	-0.89	-7.58	-7.70
127.26315789473993	8.19	-0.50	-6.62	-4.79
127.3157894736873	10.43	-1.52	-8.77	-5.43
127.36842105263467	10.77	-1.05	-8.40	-6.65
127.42105263158204	9.31	-0.17	-7.33	-5.74
127.47368421052941	10.15	-1.02	-6.10	-8.05
127.52631578947678	9.53	-1.05	-7.00	-6.37
127.57894736842415	9.18	0.29	-6.66	-6.31
127.63157894737152	9.04	-0.53	-6.71	-6.03
127.68421052631889	12.22	-1.35	-7.57	-9.49
127.73684210526626	10.86	1.38	-5.54	-9.24
127.78947368421363	9.56	1.09	-6.41	-7.01
127.842105263161	11.93	-1.66	-9.77	-6.64
127.89473684210837	8.42	0.18	-6.18	-5.71
127.94736842105574	8.31	0.62	-4.33	-7.07
128.0000000000031	11.60	-1.58	-8.24	-8.02
128.05263157895047	11.43	1.55	-5.20	-10.06
128.10526315789784	7.06	0.90	-5.13	-4.77
128.1578947368452	8.56	-1.84	-7.34	-3.99
128.21052631579258	10.66	-1.98	-7.93	-6.84
128.26315789473995	12.25	-0.41	-7.04	-10.02
128.31578947368732	11.69	-0.84	-8.32	-8.17
128.3684210526347	12.23	-0.29	-8.54	-8.75
128.42105263158206	10.05	0.02	-6.90	-7.31
128.47368421052943	9.14	-0.04	-6.66	-6.26
128.5263157894768	9.07	-0.40	-6.82	-5.95
128.57894736842417	9.98	-0.72	-7.22	-6.86
128.63157894737154	9.59	-0.65	-6.85	-6.68
128.6842105263189	8.75	0.00	-6.23	-6.14
128.73684210526628	11.24	-0.07	-6.75	-8.99
128.78947368421365	11.08	-0.11	-7.65	-8.02
128.84210526316102	8.97	0.15	-6.90	-5.73
128.8947368421084	9.07	-0.51	-7.30	-5.36
128.94736842105576	9.43	-0.27	-7.32	-5.95
129.00000000000313	9.76	-0.91	-7.64	-6.01
129.0526315789505	9.52	-0.58	-7.22	-6.18
129.10526315789787	10.12	-0.51	-6.83	-7.45
129.15789473684524	10.83	-0.44	-6.96	-8.28
129.2105263157926	10.53	-0.25	-6.48	-8.30
129.26315789473998	10.35	-0.24	-6.86	-7.75
129.31578947368735	10.68	-0.75	-7.66	-7.41
129.36842105263472	8.07	-0.31	-6.50	-4.77
129.42105263158209	9.37	-0.02	-5.86	-7.32
129.47368421052946	11.73	-0.99	-8.56	-7.96
129.52631578947683	11.67	0.30	-8.35	-8.15
129.5789473684242	10.85	-0.18	-7.15	-8.16
129.63157894737157	9.25	-0.35	-6.51	-6.57
129.68421052631894	8.71	-0.27	-6.23	-6.09
129.7368421052663	9.81	-0.86	-6.84	-6.97
129.78947368421368	10.98	-0.85	-7.78	-7.70
129.84210526316105	10.68	0.38	-6.89	-8.15
129.89473684210841	10.08	0.07	-6.94	-7.32
129.94736842105578	9.59	-0.43	-7.79	-5.58
130.00000000000315	9.58	-1.37	-7.99	-5.11
130.05263157895052	9.83	-1.28	-7.71	-5.96
130.1052631578979	10.08	-0.12	-6.38	-7.80
130.15789473684526	9.84	-0.40	-7.54	-6.30
130.21052631579263	10.50	-0.64	-7.46	-7.36
130.26315789474	11.18	-0.99	-7.91	-7.85
130.31578947368737	10.30	0.36	-6.76	-7.77
130.36842105263474	9.83	0.04	-6.55	-7.33
130.4210526315821	9.75	-0.67	-7.10	-6.65
130.47368421052948	9.65	-0.74	-7.26	-6.31
130.52631578947685	9.80	-0.68	-7.51	-6.25
130.57894736842422	7.65	-0.08	-6.17	-4.53
130.6315789473716	10.70	-1.17	-7.44	-7.59
130.68421052631896	10.20	0.78	-6.37	-7.92
130.73684210526633	11.10	-0.57	-6.67	-8.85
130.7894736842137	11.34	-2.48	-8.17	-7.45
130.84210526316107	10.79	0.37	-7.90	-7.35
130.89473684210844	9.98	-0.10	-7.08	-7.02
130.9473684210558	9.59	-0.14	-6.72	-6.84
131.00000000000318	9.34	0.02	-6.63	-6.58
131.05263157895055	8.88	-0.85	-6.54	-5.93
131.10526315789792	10.02	-0.06	-6.12	-7.94
131.1578947368453	10.31	-0.77	-7.76	-6.75
131.21052631579266	11.24	-0.38	-7.06	-8.73
131.26315789474003	8.90	-0.10	-5.75	-6.79
131.3157894736874	9.78	-0.72	-6.09	-7.61
131.36842105263477	9.92	-0.97	-7.77	-6.10
131.42105263158214	10.39	-0.92	-7.57	-7.06
131.4736842105295	8.98	-0.21	-6.66	-6.01
131.52631578947688	9.35	-0.94	-7.75	-5.14
131.57894736842425	10.47	-1.11	-8.25	-6.34
131.63157894737162	9.59	-1.59	-7.41	-5.87
131.684210526319	10.76	-1.51	-6.89	-8.12
131.73684210526636	10.05	-0.30	-6.79	-7.41
131.78947368421373	9.55	0.15	-6.40	-7.09
131.8421052631611	10.36	-0.29	-7.07	-7.57
131.89473684210847	9.63	-0.70	-7.01	-6.57
131.94736842105584	10.47	-0.32	-7.27	-7.53
132.0000000000032	10.21	-0.44	-7.33	-7.10
132.05263157895058	9.36	-0.66	-6.80	-6.40
132.10526315789795	8.70	-0.31	-6.00	-6.29
132.15789473684532	9.23	-0.33	-6.57	-6.47
132.2105263157927	9.83	-0.27	-7.63	-6.19
132.26315789474006	10.08	0.10	-6.71	-7.52
132.31578947368743	11.25	-0.71	-7.63	-8.23
132.3684210526348	8.93	0.13	-6.50	-6.12
132.42105263158217	8.61	-0.03	-6.07	-6.11
132.47368421052954	9.73	-0.41	-5.84	-7.78
132.5263157894769	8.97	-0.48	-6.49	-6.17
132.57894736842428	10.41	-0.54	-5.98	-8.51
132.63157894737165	9.37	-0.03	-6.39	-6.85
132.68421052631902	10.43	-0.76	-7.26	-7.44
132.7368421052664	9.71	0.15	-6.08	-7.57
132.78947368421376	10.93	0.34	-7.08	-8.33
132.84210526316113	10.09	-0.06	-6.06	-8.06
132.8947368421085	9.79	-0.82	-6.21	-7.52
132.94736842105587	10.80	-0.57	-7.29	-7.95
133.00000000000324	10.04	-0.91	-7.20	-6.94
133.0526315789506	7.44	-0.85	-5.81	-4.58
133.10526315789798	8.82	-1.77	-6.42	-5.78
133.15789473684535	11.94	-0.68	-6.72	-9.85
133.21052631579272	12.28	-2.52	-8.69	-8.31
133.2631578947401	12.14	-0.43	-6.76	-10.08
133.31578947368746	11.74	-0.02	-7.57	-8.97
133.36842105263483	11.44	-0.97	-7.93	-8.18
133.4210526315822	6.45	0.05	-5.10	-3.95
133.47368421052957	9.85	-1.03	-7.06	-6.80
133.52631578947694	11.10	-0.21	-8.06	-7.63
133.5789473684243	7.03	1.58	-4.64	-5.04
133.63157894737168	7.14	-1.98	-5.29	-4.36
133.68421052631905	7.10	-2.30	-4.88	-4.62
133.73684210526642	11.25	-2.56	-8.91	-6.39
133.7894736842138	15.19	-0.73	-11.00	-10.46
133.84210526316116	14.95	2.05	-9.12	-11.66
133.89473684210853	10.04	0.40	-8.17	-5.83
133.9473684210559	7.60	0.01	-6.33	-4.20
134.00000000000327	8.41	-1.27	-5.61	-6.13
134.05263157895064	8.04	-1.18	-4.73	-6.40
134.105263157898	7.69	-0.68	-5.10	-5.72
134.15789473684538	10.23	-1.97	-6.18	-7.92
134.21052631579275	11.18	-1.24	-5.63	-9.58
134.26315789474012	11.12	-0.38	-6.05	-9.32
134.3157894736875	11.32	-0.86	-6.81	-9.01
134.36842105263486	11.01	-1.86	-7.50	-7.85
134.42105263158223	8.22	-1.52	-5.48	-5.94
134.4736842105296	8.45	-1.50	-5.67	-6.08
134.52631578947697	11.33	-1.80	-7.02	-8.71
134.57894736842434	11.98	-1.13	-8.27	-8.60
134.6315789473717	11.99	-1.62	-7.44	-9.26
134.68421052631908	9.65	-1.77	-6.95	-6.46
134.73684210526645	8.91	-0.89	-5.44	-7.00
134.78947368421382	9.02	-1.77	-5.31	-7.08
134.8421052631612	10.28	-2.19	-6.86	-7.33
134.89473684210856	9.01	-0.71	-6.07	-6.62
134.94736842105593	11.28	-1.60	-7.48	-8.29
135.0000000000033	10.32	-1.47	-7.51	-6.92
135.05263157895067	10.51	0.27	-7.25	-7.61
135.10526315789804	11.10	0.02	-7.11	-8.52
135.1578947368454	8.64	-1.12	-6.91	-5.07
135.21052631579278	10.26	-1.42	-6.57	-7.75
135.26315789474015	10.43	-1.57	-6.33	-8.14
135.31578947368752	10.19	-1.37	-6.46	-7.76
135.3684210526349	10.59	-0.75	-7.34	-7.60
135.42105263158226	10.25	-0.62	-6.95	-7.51
135.47368421052963	10.10	-0.80	-7.09	-7.16
135.526315789477	9.70	-0.66	-6.39	-7.28
135.57894736842437	10.33	-1.04	-6.50	-7.96
135.63157894737174	10.60	-0.55	-7.07	-7.88
135.6842105263191	9.49	-0.35	-6.63	-6.78
135.73684210526648	9.83	-0.70	-6.28	-7.52
135.78947368421385	9.54	-0.89	-7.03	-6.38
135.84210526316122	10.17	-1.23	-7.37	-6.89
135.89473684210859	9.97	-1.17	-6.62	-7.36
135.94736842105596	10.15	-0.89	-6.95	-7.35
136.00000000000333	9.62	-0.49	-6.35	-7.21
136.0526315789507	9.75	-0.69	-6.52	-7.22
136.10526315789807	10.51	-0.92	-7.67	-7.14
136.15789473684544	11.16	-0.11	-7.64	-8.13
136.2105263157928	10.73	-0.26	-7.12	-8.02
136.26315789474017	10.28	-1.09	-6.84	-7.59
136.31578947368754	10.00	-0.51	-6.59	-7.51
136.36842105263491	10.32	-0.46	-6.42	-8.06
136.42105263158228	10.02	-0.51	-6.17	-7.88
136.47368421052965	10.23	-0.01	-6.77	-7.66
136.52631578947702	10.11	0.09	-6.73	-7.55
136.5789473684244	10.20	0.15	-6.97	-7.44
136.63157894737176	9.92	-0.20	-6.85	-7.17
136.68421052631913	9.60	-0.13	-6.36	-7.19
136.7368421052665	9.94	-0.42	-7.09	-6.95
136.78947368421387	10.38	-0.56	-7.22	-7.43
136.84210526316124	10.39	-0.10	-6.90	-7.77
136.8947368421086	10.55	0.28	-5.93	-8.72
136.94736842105598	11.37	-0.77	-7.05	-8.89
137.00000000000335	9.72	-0.74	-7.18	-6.51
137.05263157895072	10.24	-0.85	-7.12	-7.32
137.1052631578981	10.07	-0.15	-6.66	-7.55
137.15789473684546	9.65	-0.12	-6.86	-6.79
137.21052631579283	10.64	0.20	-6.76	-8.22
137.2631578947402	10.19	0.11	-6.15	-8.13
137.31578947368757	10.06	-0.62	-6.87	-7.32
137.36842105263494	9.59	-0.61	-6.60	-6.93
137.4210526315823	9.66	-0.57	-6.66	-6.97
137.47368421052968	9.71	-0.34	-6.71	-7.00
137.52631578947705	9.89	-0.19	-6.30	-7.62
137.57894736842442	10.08	-0.51	-6.44	-7.74
137.6315789473718	10.34	-0.07	-6.50	-8.04
137.68421052631916	10.26	-0.42	-6.80	-7.67
137.73684210526653	9.94	-0.26	-6.69	-7.35
137.7894736842139	9.71	0.06	-6.59	-7.13
137.84210526316127	10.74	-0.68	-7.00	-8.12
137.89473684210864	10.80	-0.66	-7.15	-8.07
137.947368421056	10.21	-0.07	-6.57	-7.82
138.00000000000338	9.29	0.23	-5.72	-7.32
138.05263157895075	9.53	0.21	-5.89	-7.49
138.10526315789812	9.48	0.19	-5.97	-7.36
138.1578947368455	10.17	-0.65	-7.12	-7.24
138.21052631579286	10.57	-0.76	-7.40	-7.50
138.26315789474023	10.20	-0.81	-7.25	-7.14
138.3157894736876	10.23	-0.89	-6.90	-7.50
138.36842105263497	9.68	-0.71	-6.43	-7.20
138.42105263158234	9.83	-0.53	-6.32	-7.51
138.4736842105297	9.39	-0.80	-6.59	-6.64
138.52631578947708	10.13	-0.68	-7.07	-7.22
138.57894736842445	10.41	-0.71	-7.34	-7.36
138.63157894737182	10.45	-0.89	-7.66	-7.05
138.6842105263192	10.40	-0.86	-7.56	-7.08
138.73684210526656	9.38	-0.17	-6.69	-6.57
138.78947368421393	10.17	-0.54	-7.06	-7.29
138.8421052631613	9.74	-0.27	-6.80	-6.97
138.89473684210867	10.27	-0.66	-7.35	-7.14
138.94736842105604	10.45	-0.65	-7.50	-7.24
139.0000000000034	9.93	-0.87	-7.62	-6.30
139.05263157895078	9.76	-0.56	-7.30	-6.45
139.10526315789815	9.84	-0.23	-7.05	-6.85
139.15789473684552	9.70	-0.16	-6.93	-6.79
139.2105263157929	10.15	-1.03	-7.49	-6.78
139.26315789474026	10.09	-0.59	-7.35	-6.89
139.31578947368763	10.20	-0.88	-7.41	-6.95
139.368421052635	9.87	-0.76	-7.16	-6.75
139.42105263158237	10.10	-0.56	-7.20	-7.06
139.47368421052974	9.69	-0.33	-6.89	-6.81
139.5263157894771	10.04	-0.35	-7.19	-7.00
139.57894736842448	9.98	-0.35	-7.09	-7.01
139.63157894737185	10.01	-0.80	-7.36	-6.73
139.68421052631922	10.09	-0.87	-7.33	-6.88
139.7368421052666	9.89	-0.78	-7.22	-6.71
139.78947368421396	10.21	-0.71	-7.31	-7.10
139.84210526316133	9.77	-0.25	-6.98	-6.84
139.8947368421087	9.91	-0.79	-7.36	-6.60
139.94736842105607	10.16	-0.94	-7.62	-6.65
140.00000000000344	10.27	-1.17	-8.03	-6.29
140.0526315789508	10.26	-0.89	-7.90	-6.48
140.10526315789818	9.63	-0.69	-7.40	-6.11
140.15789473684555	9.83	-0.32	-7.27	-6.60
140.21052631579292	9.78	-0.41	-7.12	-6.70
140.2631578947403	10.13	-0.61	-7.60	-6.67
140.31578947368766	10.37	-1.15	-7.75	-6.80
140.36842105263503	10.00	-0.87	-7.66	-6.37
140.4210526315824	10.04	-0.79	-7.53	-6.59
140.47368421052977	9.62	-0.42	-7.12	-6.45
140.52631578947714	10.30	-0.68	-7.65	-6.87
140.5789473684245	10.03	-0.73	-7.66	-6.44
140.63157894737188	9.89	-0.51	-7.49	-6.44
140.68421052631925	9.71	-0.34	-7.17	-6.54
140.73684210526662	9.85	-0.56	-7.51	-6.35
140.789473684214	9.91	-0.20	-7.36	-6.63
140.84210526316136	9.73	0.15	-7.15	-6.60
140.89473684210873	10.17	-0.78	-7.86	-6.40
